"submission_id","QUD","RT","age","condition","experiment_id","gender","optionLeft","optionRight","question","response","startDate","startTime","trial_name","trial_number","invalid_U1","invalid_U2","invalid_both"
2776,NA,NA,50,2,258,"female",NA,NA,"Please select the topic you care about the most","Buying and wearing fur","Sun Aug 22 2021 22:10:47 GMT+0200 (Mitteleuropäische Sommerzeit)",1629663047547,"choice_of_political_topic",1,FALSE,FALSE,FALSE
2776,NA,NA,50,2,258,"female",NA,NA,"Buying and wearing fur is wrong","5","Sun Aug 22 2021 22:10:47 GMT+0200 (Mitteleuropäische Sommerzeit)",1629663047547,"rate_statement",1,FALSE,FALSE,FALSE
2776,NA,NA,50,2,258,"female",NA,NA,"Call the police or do nothing ?","5","Sun Aug 22 2021 22:10:47 GMT+0200 (Mitteleuropäische Sommerzeit)",1629663047547,"experimental_trial",1,FALSE,FALSE,FALSE
2776,NA,19135,50,2,258,"female","very bad","very good","How did you feel about your choice ?","3","Sun Aug 22 2021 22:10:47 GMT+0200 (Mitteleuropäische Sommerzeit)",1629663047547,"fit_backstory_fake_rating",1,FALSE,FALSE,FALSE
2776,NA,NA,50,2,258,"female",NA,NA,"Which of the following is true about the previous study?","correct","Sun Aug 22 2021 22:10:47 GMT+0200 (Mitteleuropäische Sommerzeit)",1629663047547,"understanding_check",1,FALSE,FALSE,FALSE
2776,NA,NA,50,2,258,"female",NA,NA,"Please rate how much you agree or disagree with the following statements:","1","Sun Aug 22 2021 22:10:47 GMT+0200 (Mitteleuropäische Sommerzeit)",1629663047547,"identity_check_Pro",1,FALSE,FALSE,FALSE
2776,NA,NA,50,2,258,"female",NA,NA,"Please rate how much you agree or disagree with the following statements:","7","Sun Aug 22 2021 22:10:47 GMT+0200 (Mitteleuropäische Sommerzeit)",1629663047547,"identity_check_Anti",1,FALSE,FALSE,FALSE
2776,NA,17639,50,2,258,"female",NA,NA,"Which of the following statements is true?","correct","Sun Aug 22 2021 22:10:47 GMT+0200 (Mitteleuropäische Sommerzeit)",1629663047547,"understanding_check2",1,FALSE,FALSE,FALSE
2776,NA,25258,50,2,258,"female","not at all","very strongly","Please rate how much you agree with the following statement: <br />","5","Sun Aug 22 2021 22:10:47 GMT+0200 (Mitteleuropäische Sommerzeit)",1629663047547,"sympathy_rating",1,FALSE,FALSE,FALSE
2775,NA,NA,55,2,258,"male",NA,NA,"Please select the topic you care about the most","Refugees","Sun Aug 22 2021 22:02:22 GMT+0200 (Mitteleuropäische Sommerzeit)",1629662542383,"choice_of_political_topic",1,FALSE,FALSE,FALSE
2775,NA,NA,55,2,258,"male",NA,NA,"Germany should open its borders for all refugees","4","Sun Aug 22 2021 22:02:22 GMT+0200 (Mitteleuropäische Sommerzeit)",1629662542383,"rate_statement",1,FALSE,FALSE,FALSE
2775,NA,NA,55,2,258,"male",NA,NA,"Call the police or do nothing ?","6","Sun Aug 22 2021 22:02:22 GMT+0200 (Mitteleuropäische Sommerzeit)",1629662542383,"experimental_trial",1,FALSE,FALSE,FALSE
2775,NA,8408,55,2,258,"male","very bad","very good","How did you feel about your choice ?","7","Sun Aug 22 2021 22:02:22 GMT+0200 (Mitteleuropäische Sommerzeit)",1629662542383,"fit_backstory_fake_rating",1,FALSE,FALSE,FALSE
2775,NA,NA,55,2,258,"male",NA,NA,"Which of the following is true about the previous study?","correct","Sun Aug 22 2021 22:02:22 GMT+0200 (Mitteleuropäische Sommerzeit)",1629662542383,"understanding_check",1,FALSE,FALSE,FALSE
2775,NA,NA,55,2,258,"male",NA,NA,"Please rate how much you agree or disagree with the following statements:","6","Sun Aug 22 2021 22:02:22 GMT+0200 (Mitteleuropäische Sommerzeit)",1629662542383,"identity_check_Pro",1,FALSE,FALSE,FALSE
2775,NA,NA,55,2,258,"male",NA,NA,"Please rate how much you agree or disagree with the following statements:","2","Sun Aug 22 2021 22:02:22 GMT+0200 (Mitteleuropäische Sommerzeit)",1629662542383,"identity_check_Anti",1,FALSE,FALSE,FALSE
2775,NA,15933,55,2,258,"male",NA,NA,"Which of the following statements is true?","correct","Sun Aug 22 2021 22:02:22 GMT+0200 (Mitteleuropäische Sommerzeit)",1629662542383,"understanding_check2",1,FALSE,FALSE,FALSE
2775,NA,44570,55,2,258,"male","not at all","very strongly","Please rate how much you agree with the following statement: <br />","5","Sun Aug 22 2021 22:02:22 GMT+0200 (Mitteleuropäische Sommerzeit)",1629662542383,"sympathy_rating",1,FALSE,FALSE,FALSE
2769,NA,NA,19,2,258,"male",NA,NA,"Please select the topic you care about the most","AfD","Sun Aug 22 2021 15:39:35 GMT+0200 (Mitteleuropäische Sommerzeit)",1629639575179,"choice_of_political_topic",1,FALSE,FALSE,FALSE
2769,NA,NA,19,2,258,"male",NA,NA,"AfD winning the next federal election will be good for Germany","-5","Sun Aug 22 2021 15:39:35 GMT+0200 (Mitteleuropäische Sommerzeit)",1629639575179,"rate_statement",1,FALSE,FALSE,FALSE
2769,NA,NA,19,2,258,"male",NA,NA,"Call the police or do nothing ?","5","Sun Aug 22 2021 15:39:35 GMT+0200 (Mitteleuropäische Sommerzeit)",1629639575179,"experimental_trial",1,FALSE,FALSE,FALSE
2769,NA,9516,19,2,258,"male","very bad","very good","How did you feel about your choice ?","5","Sun Aug 22 2021 15:39:35 GMT+0200 (Mitteleuropäische Sommerzeit)",1629639575179,"fit_backstory_fake_rating",1,FALSE,FALSE,FALSE
2769,NA,NA,19,2,258,"male",NA,NA,"Which of the following is true about the previous study?","correct","Sun Aug 22 2021 15:39:35 GMT+0200 (Mitteleuropäische Sommerzeit)",1629639575179,"understanding_check",1,FALSE,FALSE,FALSE
2769,NA,NA,19,2,258,"male",NA,NA,"Please rate how much you agree or disagree with the following statements:","1","Sun Aug 22 2021 15:39:35 GMT+0200 (Mitteleuropäische Sommerzeit)",1629639575179,"identity_check_Pro",1,FALSE,FALSE,FALSE
2769,NA,NA,19,2,258,"male",NA,NA,"Please rate how much you agree or disagree with the following statements:","7","Sun Aug 22 2021 15:39:35 GMT+0200 (Mitteleuropäische Sommerzeit)",1629639575179,"identity_check_Anti",1,FALSE,FALSE,FALSE
2769,NA,9648,19,2,258,"male",NA,NA,"Which of the following statements is true?","correct","Sun Aug 22 2021 15:39:35 GMT+0200 (Mitteleuropäische Sommerzeit)",1629639575179,"understanding_check2",1,FALSE,FALSE,FALSE
2769,NA,17490,19,2,258,"male","not at all","very strongly","Please rate how much you agree with the following statement: <br />","7","Sun Aug 22 2021 15:39:35 GMT+0200 (Mitteleuropäische Sommerzeit)",1629639575179,"sympathy_rating",1,FALSE,FALSE,FALSE
2758,NA,NA,21,1,258,"male",NA,NA,"Please select the topic you care about the most","AfD","Sun Aug 22 2021 11:43:32 GMT+0300 (Eastern European Summer Time)",1629621812902,"choice_of_political_topic",1,FALSE,FALSE,FALSE
2758,NA,NA,21,1,258,"male",NA,NA,"AfD winning the next federal election will be good for Germany","-5","Sun Aug 22 2021 11:43:32 GMT+0300 (Eastern European Summer Time)",1629621812902,"rate_statement",1,FALSE,FALSE,FALSE
2758,NA,NA,21,1,258,"male",NA,NA,"Call the police or do nothing ?","2","Sun Aug 22 2021 11:43:32 GMT+0300 (Eastern European Summer Time)",1629621812902,"experimental_trial",1,FALSE,FALSE,FALSE
2758,NA,3686,21,1,258,"male","very bad","very good","How did you feel about your choice ?","4","Sun Aug 22 2021 11:43:32 GMT+0300 (Eastern European Summer Time)",1629621812902,"fit_backstory_fake_rating",1,FALSE,FALSE,FALSE
2758,NA,NA,21,1,258,"male",NA,NA,"Which of the following is true about the previous study?","correct","Sun Aug 22 2021 11:43:32 GMT+0300 (Eastern European Summer Time)",1629621812902,"understanding_check",1,FALSE,FALSE,FALSE
2758,NA,NA,21,1,258,"male",NA,NA,"Please rate how much you agree or disagree with the following statements:","1","Sun Aug 22 2021 11:43:32 GMT+0300 (Eastern European Summer Time)",1629621812902,"identity_check_Pro",1,FALSE,FALSE,FALSE
2758,NA,NA,21,1,258,"male",NA,NA,"Please rate how much you agree or disagree with the following statements:","4","Sun Aug 22 2021 11:43:32 GMT+0300 (Eastern European Summer Time)",1629621812902,"identity_check_Anti",1,FALSE,FALSE,FALSE
2758,NA,8753,21,1,258,"male",NA,NA,"Which of the following statements is true?","correct","Sun Aug 22 2021 11:43:32 GMT+0300 (Eastern European Summer Time)",1629621812902,"understanding_check2",1,FALSE,FALSE,FALSE
2758,NA,9935,21,1,258,"male","not at all","very strongly","Please rate how much you agree with the following statement: <br />","5","Sun Aug 22 2021 11:43:32 GMT+0300 (Eastern European Summer Time)",1629621812902,"sympathy_rating",1,FALSE,FALSE,FALSE
2751,NA,NA,48,4,258,"female",NA,NA,"Please select the topic you care about the most","Gun control","Sun Aug 22 2021 01:32:29 GMT+0200 (Central European Summer Time)",1629588749199,"choice_of_political_topic",1,FALSE,FALSE,FALSE
2751,NA,NA,48,4,258,"female",NA,NA,"Adults should have the right to carry a concealed handgun.","-5","Sun Aug 22 2021 01:32:29 GMT+0200 (Central European Summer Time)",1629588749199,"rate_statement",1,FALSE,FALSE,FALSE
2751,NA,NA,48,4,258,"female",NA,NA,"Call the police or do nothing ?","4","Sun Aug 22 2021 01:32:29 GMT+0200 (Central European Summer Time)",1629588749199,"experimental_trial",1,FALSE,FALSE,FALSE
2751,NA,6183,48,4,258,"female","very bad","very good","How did you feel about your choice ?","3","Sun Aug 22 2021 01:32:29 GMT+0200 (Central European Summer Time)",1629588749199,"fit_backstory_fake_rating",1,FALSE,FALSE,FALSE
2751,NA,NA,48,4,258,"female",NA,NA,"Which of the following is true about the previous study?","correct","Sun Aug 22 2021 01:32:29 GMT+0200 (Central European Summer Time)",1629588749199,"understanding_check",1,FALSE,FALSE,FALSE
2751,NA,NA,48,4,258,"female",NA,NA,"Please rate how much you agree or disagree with the following statements:","1","Sun Aug 22 2021 01:32:29 GMT+0200 (Central European Summer Time)",1629588749199,"identity_check_Pro",1,FALSE,FALSE,FALSE
2751,NA,NA,48,4,258,"female",NA,NA,"Please rate how much you agree or disagree with the following statements:","6","Sun Aug 22 2021 01:32:29 GMT+0200 (Central European Summer Time)",1629588749199,"identity_check_Anti",1,FALSE,FALSE,FALSE
2751,NA,28087,48,4,258,"female",NA,NA,"Which of the following statements is true?","correct","Sun Aug 22 2021 01:32:29 GMT+0200 (Central European Summer Time)",1629588749199,"understanding_check2",1,FALSE,FALSE,FALSE
2751,NA,11883,48,4,258,"female","not at all","very strongly","Please rate how much you agree with the following statement: <br />","4","Sun Aug 22 2021 01:32:29 GMT+0200 (Central European Summer Time)",1629588749199,"sympathy_rating",1,FALSE,FALSE,FALSE
2717,NA,NA,21,2,258,"male",NA,NA,"Please select the topic you care about the most","AfD","Sat Aug 21 2021 18:17:24 GMT+0200 (CEST)",1629562644789,"choice_of_political_topic",1,FALSE,FALSE,FALSE
2717,NA,NA,21,2,258,"male",NA,NA,"AfD winning the next federal election will be good for Germany","-5","Sat Aug 21 2021 18:17:24 GMT+0200 (CEST)",1629562644789,"rate_statement",1,FALSE,FALSE,FALSE
2717,NA,NA,21,2,258,"male",NA,NA,"Call the police or do nothing ?","5","Sat Aug 21 2021 18:17:24 GMT+0200 (CEST)",1629562644789,"experimental_trial",1,FALSE,FALSE,FALSE
2717,NA,24680,21,2,258,"male","very bad","very good","How did you feel about your choice ?","3","Sat Aug 21 2021 18:17:24 GMT+0200 (CEST)",1629562644789,"fit_backstory_fake_rating",1,FALSE,FALSE,FALSE
2717,NA,NA,21,2,258,"male",NA,NA,"Which of the following is true about the previous study?","correct","Sat Aug 21 2021 18:17:24 GMT+0200 (CEST)",1629562644789,"understanding_check",1,FALSE,FALSE,FALSE
2717,NA,NA,21,2,258,"male",NA,NA,"Please rate how much you agree or disagree with the following statements:","1","Sat Aug 21 2021 18:17:24 GMT+0200 (CEST)",1629562644789,"identity_check_Pro",1,FALSE,FALSE,FALSE
2717,NA,NA,21,2,258,"male",NA,NA,"Please rate how much you agree or disagree with the following statements:","6","Sat Aug 21 2021 18:17:24 GMT+0200 (CEST)",1629562644789,"identity_check_Anti",1,FALSE,FALSE,FALSE
2717,NA,29613,21,2,258,"male",NA,NA,"Which of the following statements is true?","correct","Sat Aug 21 2021 18:17:24 GMT+0200 (CEST)",1629562644789,"understanding_check2",1,FALSE,FALSE,FALSE
2717,NA,25170,21,2,258,"male","not at all","very strongly","Please rate how much you agree with the following statement: <br />","5","Sat Aug 21 2021 18:17:24 GMT+0200 (CEST)",1629562644789,"sympathy_rating",1,FALSE,FALSE,FALSE
2715,NA,NA,21,2,258,"female",NA,NA,"Please select the topic you care about the most","Refugees","Sat Aug 21 2021 18:12:43 GMT+0200 (CEST)",1629562363596,"choice_of_political_topic",1,FALSE,FALSE,FALSE
2715,NA,NA,21,2,258,"female",NA,NA,"Germany should open its borders for all refugees","3","Sat Aug 21 2021 18:12:43 GMT+0200 (CEST)",1629562363596,"rate_statement",1,FALSE,FALSE,FALSE
2715,NA,NA,21,2,258,"female",NA,NA,"Call the police or do nothing ?","5","Sat Aug 21 2021 18:12:43 GMT+0200 (CEST)",1629562363596,"experimental_trial",1,FALSE,FALSE,FALSE
2715,NA,5487,21,2,258,"female","very bad","very good","How did you feel about your choice ?","5","Sat Aug 21 2021 18:12:43 GMT+0200 (CEST)",1629562363596,"fit_backstory_fake_rating",1,FALSE,FALSE,FALSE
2715,NA,NA,21,2,258,"female",NA,NA,"Which of the following is true about the previous study?","correct","Sat Aug 21 2021 18:12:43 GMT+0200 (CEST)",1629562363596,"understanding_check",1,FALSE,FALSE,FALSE
2715,NA,NA,21,2,258,"female",NA,NA,"Please rate how much you agree or disagree with the following statements:","5","Sat Aug 21 2021 18:12:43 GMT+0200 (CEST)",1629562363596,"identity_check_Pro",1,FALSE,FALSE,FALSE
2715,NA,NA,21,2,258,"female",NA,NA,"Please rate how much you agree or disagree with the following statements:","1","Sat Aug 21 2021 18:12:43 GMT+0200 (CEST)",1629562363596,"identity_check_Anti",1,FALSE,FALSE,FALSE
2715,NA,12610,21,2,258,"female",NA,NA,"Which of the following statements is true?","correct","Sat Aug 21 2021 18:12:43 GMT+0200 (CEST)",1629562363596,"understanding_check2",1,FALSE,FALSE,FALSE
2715,NA,15849,21,2,258,"female","not at all","very strongly","Please rate how much you agree with the following statement: <br />","4","Sat Aug 21 2021 18:12:43 GMT+0200 (CEST)",1629562363596,"sympathy_rating",1,FALSE,FALSE,FALSE
2700,NA,NA,19,3,258,"female",NA,NA,"Please select the topic you care about the most","AfD","Fri Aug 20 2021 13:46:26 GMT+0200 (Mitteleuropäische Sommerzeit)",1629459987971,"choice_of_political_topic",1,FALSE,FALSE,FALSE
2700,NA,NA,19,3,258,"female",NA,NA,"AfD winning the next federal election will be good for Germany","-4","Fri Aug 20 2021 13:46:26 GMT+0200 (Mitteleuropäische Sommerzeit)",1629459987971,"rate_statement",1,FALSE,FALSE,FALSE
2700,NA,NA,19,3,258,"female",NA,NA,"Call the police or do nothing ?","5","Fri Aug 20 2021 13:46:26 GMT+0200 (Mitteleuropäische Sommerzeit)",1629459987971,"experimental_trial",1,FALSE,FALSE,FALSE
2700,NA,3957,19,3,258,"female","very bad","very good","How did you feel about your choice ?","6","Fri Aug 20 2021 13:46:26 GMT+0200 (Mitteleuropäische Sommerzeit)",1629459987971,"fit_backstory_fake_rating",1,FALSE,FALSE,FALSE
2700,NA,NA,19,3,258,"female",NA,NA,"Which of the following is true about the previous study?","correct","Fri Aug 20 2021 13:46:26 GMT+0200 (Mitteleuropäische Sommerzeit)",1629459987971,"understanding_check",1,FALSE,FALSE,FALSE
2700,NA,NA,19,3,258,"female",NA,NA,"Please rate how much you agree or disagree with the following statements:","2","Fri Aug 20 2021 13:46:26 GMT+0200 (Mitteleuropäische Sommerzeit)",1629459987971,"identity_check_Pro",1,FALSE,FALSE,FALSE
2700,NA,NA,19,3,258,"female",NA,NA,"Please rate how much you agree or disagree with the following statements:","4","Fri Aug 20 2021 13:46:26 GMT+0200 (Mitteleuropäische Sommerzeit)",1629459987971,"identity_check_Anti",1,FALSE,FALSE,FALSE
2700,NA,25299,19,3,258,"female",NA,NA,"Which of the following statements is true?","correct","Fri Aug 20 2021 13:46:26 GMT+0200 (Mitteleuropäische Sommerzeit)",1629459987971,"understanding_check2",1,FALSE,FALSE,FALSE
2700,NA,21951,19,3,258,"female","not at all","very strongly","Please rate how much you agree with the following statement: <br />","5","Fri Aug 20 2021 13:46:26 GMT+0200 (Mitteleuropäische Sommerzeit)",1629459987971,"sympathy_rating",1,FALSE,FALSE,FALSE
2685,NA,NA,NA,1,258,NA,NA,NA,"Please select the topic you care about the most","Feminism","Thu Aug 19 2021 14:38:41 GMT+0200 (CEST)",1629376721635,"choice_of_political_topic",1,FALSE,FALSE,FALSE
2685,NA,NA,NA,1,258,NA,NA,NA,"Feminism is important and beneficial to modern society","5","Thu Aug 19 2021 14:38:41 GMT+0200 (CEST)",1629376721635,"rate_statement",1,FALSE,FALSE,FALSE
2685,NA,NA,NA,1,258,NA,NA,NA,"Call the police or do nothing ?","6","Thu Aug 19 2021 14:38:41 GMT+0200 (CEST)",1629376721635,"experimental_trial",1,FALSE,FALSE,FALSE
2685,NA,5951,NA,1,258,NA,"very bad","very good","How did you feel about your choice ?","6","Thu Aug 19 2021 14:38:41 GMT+0200 (CEST)",1629376721635,"fit_backstory_fake_rating",1,FALSE,FALSE,FALSE
2685,NA,NA,NA,1,258,NA,NA,NA,"Which of the following is true about the previous study?","incorrect","Thu Aug 19 2021 14:38:41 GMT+0200 (CEST)",1629376721635,"understanding_check",1,TRUE,FALSE,FALSE
2685,NA,NA,NA,1,258,NA,NA,NA,"Please rate how much you agree or disagree with the following statements:","5","Thu Aug 19 2021 14:38:41 GMT+0200 (CEST)",1629376721635,"identity_check_Pro",1,FALSE,FALSE,FALSE
2685,NA,NA,NA,1,258,NA,NA,NA,"Please rate how much you agree or disagree with the following statements:","2","Thu Aug 19 2021 14:38:41 GMT+0200 (CEST)",1629376721635,"identity_check_Anti",1,FALSE,FALSE,FALSE
2685,NA,10851,NA,1,258,NA,NA,NA,"Which of the following statements is true?","correct","Thu Aug 19 2021 14:38:41 GMT+0200 (CEST)",1629376721635,"understanding_check2",1,FALSE,FALSE,FALSE
2685,NA,14547,NA,1,258,NA,"not at all","very strongly","Please rate how much you agree with the following statement: <br />","5","Thu Aug 19 2021 14:38:41 GMT+0200 (CEST)",1629376721635,"sympathy_rating",1,FALSE,FALSE,FALSE
2684,NA,NA,22,4,258,"non-binary",NA,NA,"Please select the topic you care about the most","Drug legalization","Thu Aug 19 2021 12:59:48 GMT+0200 (Mitteleuropäische Sommerzeit)",1629370788337,"choice_of_political_topic",1,FALSE,FALSE,FALSE
2684,NA,NA,22,4,258,"non-binary",NA,NA,"Possession of drugs should be legalized","2","Thu Aug 19 2021 12:59:48 GMT+0200 (Mitteleuropäische Sommerzeit)",1629370788337,"rate_statement",1,FALSE,FALSE,FALSE
2684,NA,NA,22,4,258,"non-binary",NA,NA,"Call the police or do nothing ?","6","Thu Aug 19 2021 12:59:48 GMT+0200 (Mitteleuropäische Sommerzeit)",1629370788337,"experimental_trial",1,FALSE,FALSE,FALSE
2684,NA,2929,22,4,258,"non-binary","very bad","very good","How did you feel about your choice ?","7","Thu Aug 19 2021 12:59:48 GMT+0200 (Mitteleuropäische Sommerzeit)",1629370788337,"fit_backstory_fake_rating",1,FALSE,FALSE,FALSE
2684,NA,NA,22,4,258,"non-binary",NA,NA,"Which of the following is true about the previous study?","correct","Thu Aug 19 2021 12:59:48 GMT+0200 (Mitteleuropäische Sommerzeit)",1629370788337,"understanding_check",1,FALSE,FALSE,FALSE
2684,NA,NA,22,4,258,"non-binary",NA,NA,"Please rate how much you agree or disagree with the following statements:","5","Thu Aug 19 2021 12:59:48 GMT+0200 (Mitteleuropäische Sommerzeit)",1629370788337,"identity_check_Pro",1,FALSE,FALSE,FALSE
2684,NA,NA,22,4,258,"non-binary",NA,NA,"Please rate how much you agree or disagree with the following statements:","2","Thu Aug 19 2021 12:59:48 GMT+0200 (Mitteleuropäische Sommerzeit)",1629370788337,"identity_check_Anti",1,FALSE,FALSE,FALSE
2684,NA,8798,22,4,258,"non-binary",NA,NA,"Which of the following statements is true?","incorrect","Thu Aug 19 2021 12:59:48 GMT+0200 (Mitteleuropäische Sommerzeit)",1629370788337,"understanding_check2",1,FALSE,TRUE,FALSE
2684,NA,12634,22,4,258,"non-binary","not at all","very strongly","Please rate how much you agree with the following statement: <br />","7","Thu Aug 19 2021 12:59:48 GMT+0200 (Mitteleuropäische Sommerzeit)",1629370788337,"sympathy_rating",1,FALSE,FALSE,FALSE
2683,NA,NA,21,4,258,"female",NA,NA,"Please select the topic you care about the most","Feminism","Thu Aug 19 2021 12:41:09 GMT+0200 (Mitteleuropäische Sommerzeit)",1629369669631,"choice_of_political_topic",1,FALSE,FALSE,FALSE
2683,NA,NA,21,4,258,"female",NA,NA,"Feminism is important and beneficial to modern society","5","Thu Aug 19 2021 12:41:09 GMT+0200 (Mitteleuropäische Sommerzeit)",1629369669631,"rate_statement",1,FALSE,FALSE,FALSE
2683,NA,NA,21,4,258,"female",NA,NA,"Call the police or do nothing ?","6","Thu Aug 19 2021 12:41:09 GMT+0200 (Mitteleuropäische Sommerzeit)",1629369669631,"experimental_trial",1,FALSE,FALSE,FALSE
2683,NA,2256,21,4,258,"female","very bad","very good","How did you feel about your choice ?","7","Thu Aug 19 2021 12:41:09 GMT+0200 (Mitteleuropäische Sommerzeit)",1629369669631,"fit_backstory_fake_rating",1,FALSE,FALSE,FALSE
2683,NA,NA,21,4,258,"female",NA,NA,"Which of the following is true about the previous study?","correct","Thu Aug 19 2021 12:41:09 GMT+0200 (Mitteleuropäische Sommerzeit)",1629369669631,"understanding_check",1,FALSE,FALSE,FALSE
2683,NA,NA,21,4,258,"female",NA,NA,"Please rate how much you agree or disagree with the following statements:","7","Thu Aug 19 2021 12:41:09 GMT+0200 (Mitteleuropäische Sommerzeit)",1629369669631,"identity_check_Pro",1,FALSE,FALSE,FALSE
2683,NA,NA,21,4,258,"female",NA,NA,"Please rate how much you agree or disagree with the following statements:","1","Thu Aug 19 2021 12:41:09 GMT+0200 (Mitteleuropäische Sommerzeit)",1629369669631,"identity_check_Anti",1,FALSE,FALSE,FALSE
2683,NA,11150,21,4,258,"female",NA,NA,"Which of the following statements is true?","incorrect","Thu Aug 19 2021 12:41:09 GMT+0200 (Mitteleuropäische Sommerzeit)",1629369669631,"understanding_check2",1,FALSE,TRUE,FALSE
2683,NA,11215,21,4,258,"female","not at all","very strongly","Please rate how much you agree with the following statement: <br />","7","Thu Aug 19 2021 12:41:09 GMT+0200 (Mitteleuropäische Sommerzeit)",1629369669631,"sympathy_rating",1,FALSE,FALSE,FALSE
2682,NA,NA,21,3,258,"female",NA,NA,"Please select the topic you care about the most","AfD","Thu Aug 19 2021 10:54:12 GMT+0200 (Mitteleuropäische Sommerzeit)",1629363252906,"choice_of_political_topic",1,FALSE,FALSE,FALSE
2682,NA,NA,21,3,258,"female",NA,NA,"AfD winning the next federal election will be good for Germany","-5","Thu Aug 19 2021 10:54:12 GMT+0200 (Mitteleuropäische Sommerzeit)",1629363252906,"rate_statement",1,FALSE,FALSE,FALSE
2682,NA,NA,21,3,258,"female",NA,NA,"Call the police or do nothing ?","5","Thu Aug 19 2021 10:54:12 GMT+0200 (Mitteleuropäische Sommerzeit)",1629363252906,"experimental_trial",1,FALSE,FALSE,FALSE
2682,NA,2836,21,3,258,"female","very bad","very good","How did you feel about your choice ?","6","Thu Aug 19 2021 10:54:12 GMT+0200 (Mitteleuropäische Sommerzeit)",1629363252906,"fit_backstory_fake_rating",1,FALSE,FALSE,FALSE
2682,NA,NA,21,3,258,"female",NA,NA,"Which of the following is true about the previous study?","correct","Thu Aug 19 2021 10:54:12 GMT+0200 (Mitteleuropäische Sommerzeit)",1629363252906,"understanding_check",1,FALSE,FALSE,FALSE
2682,NA,NA,21,3,258,"female",NA,NA,"Please rate how much you agree or disagree with the following statements:","1","Thu Aug 19 2021 10:54:12 GMT+0200 (Mitteleuropäische Sommerzeit)",1629363252906,"identity_check_Pro",1,FALSE,FALSE,FALSE
2682,NA,NA,21,3,258,"female",NA,NA,"Please rate how much you agree or disagree with the following statements:","7","Thu Aug 19 2021 10:54:12 GMT+0200 (Mitteleuropäische Sommerzeit)",1629363252906,"identity_check_Anti",1,FALSE,FALSE,FALSE
2682,NA,8414,21,3,258,"female",NA,NA,"Which of the following statements is true?","incorrect","Thu Aug 19 2021 10:54:12 GMT+0200 (Mitteleuropäische Sommerzeit)",1629363252906,"understanding_check2",1,FALSE,TRUE,FALSE
2682,NA,11076,21,3,258,"female","not at all","very strongly","Please rate how much you agree with the following statement: <br />","6","Thu Aug 19 2021 10:54:12 GMT+0200 (Mitteleuropäische Sommerzeit)",1629363252906,"sympathy_rating",1,FALSE,FALSE,FALSE
2680,NA,NA,21,2,258,"prefer_not_to_say",NA,NA,"Please select the topic you care about the most","Feminism","Wed Aug 18 2021 19:29:08 GMT+0200 (Central European Summer Time)",1629307748828,"choice_of_political_topic",1,FALSE,FALSE,FALSE
2680,NA,NA,21,2,258,"prefer_not_to_say",NA,NA,"Feminism is important and beneficial to modern society","3","Wed Aug 18 2021 19:29:08 GMT+0200 (Central European Summer Time)",1629307748828,"rate_statement",1,FALSE,FALSE,FALSE
2680,NA,NA,21,2,258,"prefer_not_to_say",NA,NA,"Call the police or do nothing ?","1","Wed Aug 18 2021 19:29:08 GMT+0200 (Central European Summer Time)",1629307748828,"experimental_trial",1,FALSE,FALSE,FALSE
2680,NA,2257,21,2,258,"prefer_not_to_say","very bad","very good","How did you feel about your choice ?","7","Wed Aug 18 2021 19:29:08 GMT+0200 (Central European Summer Time)",1629307748828,"fit_backstory_fake_rating",1,FALSE,FALSE,FALSE
2680,NA,NA,21,2,258,"prefer_not_to_say",NA,NA,"Which of the following is true about the previous study?","correct","Wed Aug 18 2021 19:29:08 GMT+0200 (Central European Summer Time)",1629307748828,"understanding_check",1,FALSE,FALSE,FALSE
2680,NA,NA,21,2,258,"prefer_not_to_say",NA,NA,"Please rate how much you agree or disagree with the following statements:","3","Wed Aug 18 2021 19:29:08 GMT+0200 (Central European Summer Time)",1629307748828,"identity_check_Pro",1,FALSE,FALSE,FALSE
2680,NA,NA,21,2,258,"prefer_not_to_say",NA,NA,"Please rate how much you agree or disagree with the following statements:","5","Wed Aug 18 2021 19:29:08 GMT+0200 (Central European Summer Time)",1629307748828,"identity_check_Anti",1,FALSE,FALSE,FALSE
2680,NA,10422,21,2,258,"prefer_not_to_say",NA,NA,"Which of the following statements is true?","correct","Wed Aug 18 2021 19:29:08 GMT+0200 (Central European Summer Time)",1629307748828,"understanding_check2",1,FALSE,FALSE,FALSE
2680,NA,9661,21,2,258,"prefer_not_to_say","not at all","very strongly","Please rate how much you agree with the following statement: <br />","4","Wed Aug 18 2021 19:29:08 GMT+0200 (Central European Summer Time)",1629307748828,"sympathy_rating",1,FALSE,FALSE,FALSE
2679,NA,NA,41,2,258,"male",NA,NA,"Please select the topic you care about the most","Drug legalization","Wed Aug 18 2021 18:13:44 GMT+0200 (Central European Summer Time)",1629303224047,"choice_of_political_topic",1,FALSE,FALSE,FALSE
2679,NA,NA,41,2,258,"male",NA,NA,"Possession of drugs should be legalized","5","Wed Aug 18 2021 18:13:44 GMT+0200 (Central European Summer Time)",1629303224047,"rate_statement",1,FALSE,FALSE,FALSE
2679,NA,NA,41,2,258,"male",NA,NA,"Call the police or do nothing ?","6","Wed Aug 18 2021 18:13:44 GMT+0200 (Central European Summer Time)",1629303224047,"experimental_trial",1,FALSE,FALSE,FALSE
2679,NA,2967,41,2,258,"male","very bad","very good","How did you feel about your choice ?","7","Wed Aug 18 2021 18:13:44 GMT+0200 (Central European Summer Time)",1629303224047,"fit_backstory_fake_rating",1,FALSE,FALSE,FALSE
2679,NA,NA,41,2,258,"male",NA,NA,"Which of the following is true about the previous study?","correct","Wed Aug 18 2021 18:13:44 GMT+0200 (Central European Summer Time)",1629303224047,"understanding_check",1,FALSE,FALSE,FALSE
2679,NA,NA,41,2,258,"male",NA,NA,"Please rate how much you agree or disagree with the following statements:","6","Wed Aug 18 2021 18:13:44 GMT+0200 (Central European Summer Time)",1629303224047,"identity_check_Pro",1,FALSE,FALSE,FALSE
2679,NA,NA,41,2,258,"male",NA,NA,"Please rate how much you agree or disagree with the following statements:","1","Wed Aug 18 2021 18:13:44 GMT+0200 (Central European Summer Time)",1629303224047,"identity_check_Anti",1,FALSE,FALSE,FALSE
2679,NA,14436,41,2,258,"male",NA,NA,"Which of the following statements is true?","correct","Wed Aug 18 2021 18:13:44 GMT+0200 (Central European Summer Time)",1629303224047,"understanding_check2",1,FALSE,FALSE,FALSE
2679,NA,12581,41,2,258,"male","not at all","very strongly","Please rate how much you agree with the following statement: <br />","5","Wed Aug 18 2021 18:13:44 GMT+0200 (Central European Summer Time)",1629303224047,"sympathy_rating",1,FALSE,FALSE,FALSE
2670,NA,NA,21,2,258,"female",NA,NA,"Please select the topic you care about the most","Feminism","Wed Aug 18 2021 11:08:49 GMT+0200 (hora de verano de Europa central)",1629277729505,"choice_of_political_topic",1,FALSE,FALSE,FALSE
2670,NA,NA,21,2,258,"female",NA,NA,"Feminism is important and beneficial to modern society","3","Wed Aug 18 2021 11:08:49 GMT+0200 (hora de verano de Europa central)",1629277729505,"rate_statement",1,FALSE,FALSE,FALSE
2670,NA,NA,21,2,258,"female",NA,NA,"Call the police or do nothing ?","5","Wed Aug 18 2021 11:08:49 GMT+0200 (hora de verano de Europa central)",1629277729505,"experimental_trial",1,FALSE,FALSE,FALSE
2670,NA,13782,21,2,258,"female","very bad","very good","How did you feel about your choice ?","6","Wed Aug 18 2021 11:08:49 GMT+0200 (hora de verano de Europa central)",1629277729505,"fit_backstory_fake_rating",1,FALSE,FALSE,FALSE
2670,NA,NA,21,2,258,"female",NA,NA,"Which of the following is true about the previous study?","correct","Wed Aug 18 2021 11:08:49 GMT+0200 (hora de verano de Europa central)",1629277729505,"understanding_check",1,FALSE,FALSE,FALSE
2670,NA,NA,21,2,258,"female",NA,NA,"Please rate how much you agree or disagree with the following statements:","5","Wed Aug 18 2021 11:08:49 GMT+0200 (hora de verano de Europa central)",1629277729505,"identity_check_Pro",1,FALSE,FALSE,FALSE
2670,NA,NA,21,2,258,"female",NA,NA,"Please rate how much you agree or disagree with the following statements:","3","Wed Aug 18 2021 11:08:49 GMT+0200 (hora de verano de Europa central)",1629277729505,"identity_check_Anti",1,FALSE,FALSE,FALSE
2670,NA,5730,21,2,258,"female",NA,NA,"Which of the following statements is true?","correct","Wed Aug 18 2021 11:08:49 GMT+0200 (hora de verano de Europa central)",1629277729505,"understanding_check2",1,FALSE,FALSE,FALSE
2670,NA,12503,21,2,258,"female","not at all","very strongly","Please rate how much you agree with the following statement: <br />","6","Wed Aug 18 2021 11:08:49 GMT+0200 (hora de verano de Europa central)",1629277729505,"sympathy_rating",1,FALSE,FALSE,FALSE
2669,NA,NA,23,2,258,"female",NA,NA,"Please select the topic you care about the most","Feminism","Wed Aug 18 2021 10:53:58 GMT+0200 (Central European Summer Time)",1629276838328,"choice_of_political_topic",1,FALSE,FALSE,FALSE
2669,NA,NA,23,2,258,"female",NA,NA,"Feminism is important and beneficial to modern society","4","Wed Aug 18 2021 10:53:58 GMT+0200 (Central European Summer Time)",1629276838328,"rate_statement",1,FALSE,FALSE,FALSE
2669,NA,NA,23,2,258,"female",NA,NA,"Call the police or do nothing ?","5","Wed Aug 18 2021 10:53:58 GMT+0200 (Central European Summer Time)",1629276838328,"experimental_trial",1,FALSE,FALSE,FALSE
2669,NA,22058,23,2,258,"female","very bad","very good","How did you feel about your choice ?","4","Wed Aug 18 2021 10:53:58 GMT+0200 (Central European Summer Time)",1629276838328,"fit_backstory_fake_rating",1,FALSE,FALSE,FALSE
2669,NA,NA,23,2,258,"female",NA,NA,"Which of the following is true about the previous study?","correct","Wed Aug 18 2021 10:53:58 GMT+0200 (Central European Summer Time)",1629276838328,"understanding_check",1,FALSE,FALSE,FALSE
2669,NA,NA,23,2,258,"female",NA,NA,"Please rate how much you agree or disagree with the following statements:","6","Wed Aug 18 2021 10:53:58 GMT+0200 (Central European Summer Time)",1629276838328,"identity_check_Pro",1,FALSE,FALSE,FALSE
2669,NA,NA,23,2,258,"female",NA,NA,"Please rate how much you agree or disagree with the following statements:","3","Wed Aug 18 2021 10:53:58 GMT+0200 (Central European Summer Time)",1629276838328,"identity_check_Anti",1,FALSE,FALSE,FALSE
2669,NA,16314,23,2,258,"female",NA,NA,"Which of the following statements is true?","correct","Wed Aug 18 2021 10:53:58 GMT+0200 (Central European Summer Time)",1629276838328,"understanding_check2",1,FALSE,FALSE,FALSE
2669,NA,22980,23,2,258,"female","not at all","very strongly","Please rate how much you agree with the following statement: <br />","5","Wed Aug 18 2021 10:53:58 GMT+0200 (Central European Summer Time)",1629276838328,"sympathy_rating",1,FALSE,FALSE,FALSE
2668,NA,NA,47,3,258,"female",NA,NA,"Please select the topic you care about the most","Refugees","Wed Aug 18 2021 10:16:15 GMT+0200 (Mitteleuropäische Sommerzeit)",1629274575349,"choice_of_political_topic",1,FALSE,FALSE,FALSE
2668,NA,NA,47,3,258,"female",NA,NA,"Germany should open its borders for all refugees","4","Wed Aug 18 2021 10:16:15 GMT+0200 (Mitteleuropäische Sommerzeit)",1629274575349,"rate_statement",1,FALSE,FALSE,FALSE
2668,NA,NA,47,3,258,"female",NA,NA,"Call the police or do nothing ?","2","Wed Aug 18 2021 10:16:15 GMT+0200 (Mitteleuropäische Sommerzeit)",1629274575349,"experimental_trial",1,FALSE,FALSE,FALSE
2668,NA,30205,47,3,258,"female","very bad","very good","How did you feel about your choice ?","4","Wed Aug 18 2021 10:16:15 GMT+0200 (Mitteleuropäische Sommerzeit)",1629274575349,"fit_backstory_fake_rating",1,FALSE,FALSE,FALSE
2668,NA,NA,47,3,258,"female",NA,NA,"Which of the following is true about the previous study?","incorrect","Wed Aug 18 2021 10:16:15 GMT+0200 (Mitteleuropäische Sommerzeit)",1629274575349,"understanding_check",1,TRUE,FALSE,FALSE
2668,NA,NA,47,3,258,"female",NA,NA,"Please rate how much you agree or disagree with the following statements:","6","Wed Aug 18 2021 10:16:15 GMT+0200 (Mitteleuropäische Sommerzeit)",1629274575349,"identity_check_Pro",1,FALSE,FALSE,FALSE
2668,NA,NA,47,3,258,"female",NA,NA,"Please rate how much you agree or disagree with the following statements:","2","Wed Aug 18 2021 10:16:15 GMT+0200 (Mitteleuropäische Sommerzeit)",1629274575349,"identity_check_Anti",1,FALSE,FALSE,FALSE
2668,NA,25039,47,3,258,"female",NA,NA,"Which of the following statements is true?","correct","Wed Aug 18 2021 10:16:15 GMT+0200 (Mitteleuropäische Sommerzeit)",1629274575349,"understanding_check2",1,FALSE,FALSE,FALSE
2668,NA,10047,47,3,258,"female","not at all","very strongly","Please rate how much you agree with the following statement: <br />","6","Wed Aug 18 2021 10:16:15 GMT+0200 (Mitteleuropäische Sommerzeit)",1629274575349,"sympathy_rating",1,FALSE,FALSE,FALSE
2664,NA,NA,52,2,258,"female",NA,NA,"Please select the topic you care about the most","Refugees","Wed Aug 18 2021 08:06:30 GMT+0200 (Central European Summer Time)",1629266790628,"choice_of_political_topic",1,FALSE,FALSE,FALSE
2664,NA,NA,52,2,258,"female",NA,NA,"Germany should open its borders for all refugees","2","Wed Aug 18 2021 08:06:30 GMT+0200 (Central European Summer Time)",1629266790628,"rate_statement",1,FALSE,FALSE,FALSE
2664,NA,NA,52,2,258,"female",NA,NA,"Call the police or do nothing ?","4","Wed Aug 18 2021 08:06:30 GMT+0200 (Central European Summer Time)",1629266790628,"experimental_trial",1,FALSE,FALSE,FALSE
2664,NA,10409,52,2,258,"female","very bad","very good","How did you feel about your choice ?","4","Wed Aug 18 2021 08:06:30 GMT+0200 (Central European Summer Time)",1629266790628,"fit_backstory_fake_rating",1,FALSE,FALSE,FALSE
2664,NA,NA,52,2,258,"female",NA,NA,"Which of the following is true about the previous study?","correct","Wed Aug 18 2021 08:06:30 GMT+0200 (Central European Summer Time)",1629266790628,"understanding_check",1,FALSE,FALSE,FALSE
2664,NA,NA,52,2,258,"female",NA,NA,"Please rate how much you agree or disagree with the following statements:","5","Wed Aug 18 2021 08:06:30 GMT+0200 (Central European Summer Time)",1629266790628,"identity_check_Pro",1,FALSE,FALSE,FALSE
2664,NA,NA,52,2,258,"female",NA,NA,"Please rate how much you agree or disagree with the following statements:","2","Wed Aug 18 2021 08:06:30 GMT+0200 (Central European Summer Time)",1629266790628,"identity_check_Anti",1,FALSE,FALSE,FALSE
2664,NA,13163,52,2,258,"female",NA,NA,"Which of the following statements is true?","correct","Wed Aug 18 2021 08:06:30 GMT+0200 (Central European Summer Time)",1629266790628,"understanding_check2",1,FALSE,FALSE,FALSE
2664,NA,22978,52,2,258,"female","not at all","very strongly","Please rate how much you agree with the following statement: <br />","7","Wed Aug 18 2021 08:06:30 GMT+0200 (Central European Summer Time)",1629266790628,"sympathy_rating",1,FALSE,FALSE,FALSE
2663,NA,NA,54,3,258,"male",NA,NA,"Please select the topic you care about the most","Taxing religious organization","Wed Aug 18 2021 07:52:42 GMT+0200 (Central European Summer Time)",1629265962652,"choice_of_political_topic",1,FALSE,FALSE,FALSE
2663,NA,NA,54,3,258,"male",NA,NA,"Religious organizations should be taxed","5","Wed Aug 18 2021 07:52:42 GMT+0200 (Central European Summer Time)",1629265962652,"rate_statement",1,FALSE,FALSE,FALSE
2663,NA,NA,54,3,258,"male",NA,NA,"Call the police or do nothing ?","6","Wed Aug 18 2021 07:52:42 GMT+0200 (Central European Summer Time)",1629265962652,"experimental_trial",1,FALSE,FALSE,FALSE
2663,NA,5102,54,3,258,"male","very bad","very good","How did you feel about your choice ?","7","Wed Aug 18 2021 07:52:42 GMT+0200 (Central European Summer Time)",1629265962652,"fit_backstory_fake_rating",1,FALSE,FALSE,FALSE
2663,NA,NA,54,3,258,"male",NA,NA,"Which of the following is true about the previous study?","correct","Wed Aug 18 2021 07:52:42 GMT+0200 (Central European Summer Time)",1629265962652,"understanding_check",1,FALSE,FALSE,FALSE
2663,NA,NA,54,3,258,"male",NA,NA,"Please rate how much you agree or disagree with the following statements:","5","Wed Aug 18 2021 07:52:42 GMT+0200 (Central European Summer Time)",1629265962652,"identity_check_Pro",1,FALSE,FALSE,FALSE
2663,NA,NA,54,3,258,"male",NA,NA,"Please rate how much you agree or disagree with the following statements:","6","Wed Aug 18 2021 07:52:42 GMT+0200 (Central European Summer Time)",1629265962652,"identity_check_Anti",1,FALSE,FALSE,FALSE
2663,NA,22197,54,3,258,"male",NA,NA,"Which of the following statements is true?","correct","Wed Aug 18 2021 07:52:42 GMT+0200 (Central European Summer Time)",1629265962652,"understanding_check2",1,FALSE,FALSE,FALSE
2663,NA,15836,54,3,258,"male","not at all","very strongly","Please rate how much you agree with the following statement: <br />","4","Wed Aug 18 2021 07:52:42 GMT+0200 (Central European Summer Time)",1629265962652,"sympathy_rating",1,FALSE,FALSE,FALSE
2661,NA,NA,48,1,258,"female",NA,NA,"Please select the topic you care about the most","Refugees","Wed Aug 18 2021 07:48:13 GMT+0200 (CEST)",1629265693582,"choice_of_political_topic",1,FALSE,FALSE,FALSE
2661,NA,NA,48,1,258,"female",NA,NA,"Germany should open its borders for all refugees","3","Wed Aug 18 2021 07:48:13 GMT+0200 (CEST)",1629265693582,"rate_statement",1,FALSE,FALSE,FALSE
2661,NA,NA,48,1,258,"female",NA,NA,"Call the police or do nothing ?","1","Wed Aug 18 2021 07:48:13 GMT+0200 (CEST)",1629265693582,"experimental_trial",1,FALSE,FALSE,FALSE
2661,NA,4974,48,1,258,"female","very bad","very good","How did you feel about your choice ?","7","Wed Aug 18 2021 07:48:13 GMT+0200 (CEST)",1629265693582,"fit_backstory_fake_rating",1,FALSE,FALSE,FALSE
2661,NA,NA,48,1,258,"female",NA,NA,"Which of the following is true about the previous study?","correct","Wed Aug 18 2021 07:48:13 GMT+0200 (CEST)",1629265693582,"understanding_check",1,FALSE,FALSE,FALSE
2661,NA,NA,48,1,258,"female",NA,NA,"Please rate how much you agree or disagree with the following statements:","4","Wed Aug 18 2021 07:48:13 GMT+0200 (CEST)",1629265693582,"identity_check_Pro",1,FALSE,FALSE,FALSE
2661,NA,NA,48,1,258,"female",NA,NA,"Please rate how much you agree or disagree with the following statements:","1","Wed Aug 18 2021 07:48:13 GMT+0200 (CEST)",1629265693582,"identity_check_Anti",1,FALSE,FALSE,FALSE
2661,NA,11054,48,1,258,"female",NA,NA,"Which of the following statements is true?","correct","Wed Aug 18 2021 07:48:13 GMT+0200 (CEST)",1629265693582,"understanding_check2",1,FALSE,FALSE,FALSE
2661,NA,18187,48,1,258,"female","not at all","very strongly","Please rate how much you agree with the following statement: <br />","7","Wed Aug 18 2021 07:48:13 GMT+0200 (CEST)",1629265693582,"sympathy_rating",1,FALSE,FALSE,FALSE
2655,NA,NA,20,3,258,"female",NA,NA,"Please select the topic you care about the most","Refugees","Wed Aug 18 2021 00:09:18 GMT+0200 (Mitteleuropäische Sommerzeit)",1629238158736,"choice_of_political_topic",1,FALSE,FALSE,FALSE
2655,NA,NA,20,3,258,"female",NA,NA,"Germany should open its borders for all refugees","5","Wed Aug 18 2021 00:09:18 GMT+0200 (Mitteleuropäische Sommerzeit)",1629238158736,"rate_statement",1,FALSE,FALSE,FALSE
2655,NA,NA,20,3,258,"female",NA,NA,"Call the police or do nothing ?","5","Wed Aug 18 2021 00:09:18 GMT+0200 (Mitteleuropäische Sommerzeit)",1629238158736,"experimental_trial",1,FALSE,FALSE,FALSE
2655,NA,4069,20,3,258,"female","very bad","very good","How did you feel about your choice ?","5","Wed Aug 18 2021 00:09:18 GMT+0200 (Mitteleuropäische Sommerzeit)",1629238158736,"fit_backstory_fake_rating",1,FALSE,FALSE,FALSE
2655,NA,NA,20,3,258,"female",NA,NA,"Which of the following is true about the previous study?","incorrect","Wed Aug 18 2021 00:09:18 GMT+0200 (Mitteleuropäische Sommerzeit)",1629238158736,"understanding_check",1,TRUE,FALSE,FALSE
2655,NA,NA,20,3,258,"female",NA,NA,"Please rate how much you agree or disagree with the following statements:","6","Wed Aug 18 2021 00:09:18 GMT+0200 (Mitteleuropäische Sommerzeit)",1629238158736,"identity_check_Pro",1,FALSE,FALSE,FALSE
2655,NA,NA,20,3,258,"female",NA,NA,"Please rate how much you agree or disagree with the following statements:","1","Wed Aug 18 2021 00:09:18 GMT+0200 (Mitteleuropäische Sommerzeit)",1629238158736,"identity_check_Anti",1,FALSE,FALSE,FALSE
2655,NA,16016,20,3,258,"female",NA,NA,"Which of the following statements is true?","correct","Wed Aug 18 2021 00:09:18 GMT+0200 (Mitteleuropäische Sommerzeit)",1629238158736,"understanding_check2",1,FALSE,FALSE,FALSE
2655,NA,12871,20,3,258,"female","not at all","very strongly","Please rate how much you agree with the following statement: <br />","7","Wed Aug 18 2021 00:09:18 GMT+0200 (Mitteleuropäische Sommerzeit)",1629238158736,"sympathy_rating",1,FALSE,FALSE,FALSE
2653,NA,NA,22,2,258,"male",NA,NA,"Please select the topic you care about the most","Drug legalization","Tue Aug 17 2021 23:16:24 GMT+0200 (CEST)",1629234984991,"choice_of_political_topic",1,FALSE,FALSE,FALSE
2653,NA,NA,22,2,258,"male",NA,NA,"Possession of drugs should be legalized","4","Tue Aug 17 2021 23:16:24 GMT+0200 (CEST)",1629234984991,"rate_statement",1,FALSE,FALSE,FALSE
2653,NA,NA,22,2,258,"male",NA,NA,"Call the police or do nothing ?","4","Tue Aug 17 2021 23:16:24 GMT+0200 (CEST)",1629234984991,"experimental_trial",1,FALSE,FALSE,FALSE
2653,NA,6984,22,2,258,"male","very bad","very good","How did you feel about your choice ?","7","Tue Aug 17 2021 23:16:24 GMT+0200 (CEST)",1629234984991,"fit_backstory_fake_rating",1,FALSE,FALSE,FALSE
2653,NA,NA,22,2,258,"male",NA,NA,"Which of the following is true about the previous study?","correct","Tue Aug 17 2021 23:16:24 GMT+0200 (CEST)",1629234984991,"understanding_check",1,FALSE,FALSE,FALSE
2653,NA,NA,22,2,258,"male",NA,NA,"Please rate how much you agree or disagree with the following statements:","7","Tue Aug 17 2021 23:16:24 GMT+0200 (CEST)",1629234984991,"identity_check_Pro",1,FALSE,FALSE,FALSE
2653,NA,NA,22,2,258,"male",NA,NA,"Please rate how much you agree or disagree with the following statements:","1","Tue Aug 17 2021 23:16:24 GMT+0200 (CEST)",1629234984991,"identity_check_Anti",1,FALSE,FALSE,FALSE
2653,NA,12954,22,2,258,"male",NA,NA,"Which of the following statements is true?","correct","Tue Aug 17 2021 23:16:24 GMT+0200 (CEST)",1629234984991,"understanding_check2",1,FALSE,FALSE,FALSE
2653,NA,11362,22,2,258,"male","not at all","very strongly","Please rate how much you agree with the following statement: <br />","4","Tue Aug 17 2021 23:16:24 GMT+0200 (CEST)",1629234984991,"sympathy_rating",1,FALSE,FALSE,FALSE
2649,NA,NA,61,3,258,"female",NA,NA,"Please select the topic you care about the most","Refugees","Tue Aug 17 2021 20:02:41 GMT+0200 (Mitteleuropäische Sommerzeit)",1629223361501,"choice_of_political_topic",1,FALSE,FALSE,FALSE
2649,NA,NA,61,3,258,"female",NA,NA,"Germany should open its borders for all refugees","3","Tue Aug 17 2021 20:02:41 GMT+0200 (Mitteleuropäische Sommerzeit)",1629223361501,"rate_statement",1,FALSE,FALSE,FALSE
2649,NA,NA,61,3,258,"female",NA,NA,"Call the police or do nothing ?","1","Tue Aug 17 2021 20:02:41 GMT+0200 (Mitteleuropäische Sommerzeit)",1629223361501,"experimental_trial",1,FALSE,FALSE,FALSE
2649,NA,14270,61,3,258,"female","very bad","very good","How did you feel about your choice ?","7","Tue Aug 17 2021 20:02:41 GMT+0200 (Mitteleuropäische Sommerzeit)",1629223361501,"fit_backstory_fake_rating",1,FALSE,FALSE,FALSE
2649,NA,NA,61,3,258,"female",NA,NA,"Which of the following is true about the previous study?","incorrect","Tue Aug 17 2021 20:02:41 GMT+0200 (Mitteleuropäische Sommerzeit)",1629223361501,"understanding_check",1,TRUE,FALSE,FALSE
2649,NA,NA,61,3,258,"female",NA,NA,"Please rate how much you agree or disagree with the following statements:","4","Tue Aug 17 2021 20:02:41 GMT+0200 (Mitteleuropäische Sommerzeit)",1629223361501,"identity_check_Pro",1,FALSE,FALSE,FALSE
2649,NA,NA,61,3,258,"female",NA,NA,"Please rate how much you agree or disagree with the following statements:","1","Tue Aug 17 2021 20:02:41 GMT+0200 (Mitteleuropäische Sommerzeit)",1629223361501,"identity_check_Anti",1,FALSE,FALSE,FALSE
2649,NA,23347,61,3,258,"female",NA,NA,"Which of the following statements is true?","incorrect","Tue Aug 17 2021 20:02:41 GMT+0200 (Mitteleuropäische Sommerzeit)",1629223361501,"understanding_check2",1,FALSE,TRUE,FALSE
2649,NA,62140,61,3,258,"female","not at all","very strongly","Please rate how much you agree with the following statement: <br />","5","Tue Aug 17 2021 20:02:41 GMT+0200 (Mitteleuropäische Sommerzeit)",1629223361501,"sympathy_rating",1,FALSE,FALSE,FALSE
2647,NA,NA,21,4,258,"other",NA,NA,"Please select the topic you care about the most","Refugees","Tue Aug 17 2021 19:22:59 GMT+0200 (Mitteleuropäische Sommerzeit)",1629220979541,"choice_of_political_topic",1,FALSE,FALSE,FALSE
2647,NA,NA,21,4,258,"other",NA,NA,"Germany should open its borders for all refugees","5","Tue Aug 17 2021 19:22:59 GMT+0200 (Mitteleuropäische Sommerzeit)",1629220979541,"rate_statement",1,FALSE,FALSE,FALSE
2647,NA,NA,21,4,258,"other",NA,NA,"Call the police or do nothing ?","6","Tue Aug 17 2021 19:22:59 GMT+0200 (Mitteleuropäische Sommerzeit)",1629220979541,"experimental_trial",1,FALSE,FALSE,FALSE
2647,NA,3340,21,4,258,"other","very bad","very good","How did you feel about your choice ?","7","Tue Aug 17 2021 19:22:59 GMT+0200 (Mitteleuropäische Sommerzeit)",1629220979541,"fit_backstory_fake_rating",1,FALSE,FALSE,FALSE
2647,NA,NA,21,4,258,"other",NA,NA,"Which of the following is true about the previous study?","correct","Tue Aug 17 2021 19:22:59 GMT+0200 (Mitteleuropäische Sommerzeit)",1629220979541,"understanding_check",1,FALSE,FALSE,FALSE
2647,NA,NA,21,4,258,"other",NA,NA,"Please rate how much you agree or disagree with the following statements:","5","Tue Aug 17 2021 19:22:59 GMT+0200 (Mitteleuropäische Sommerzeit)",1629220979541,"identity_check_Pro",1,FALSE,FALSE,FALSE
2647,NA,NA,21,4,258,"other",NA,NA,"Please rate how much you agree or disagree with the following statements:","1","Tue Aug 17 2021 19:22:59 GMT+0200 (Mitteleuropäische Sommerzeit)",1629220979541,"identity_check_Anti",1,FALSE,FALSE,FALSE
2647,NA,15840,21,4,258,"other",NA,NA,"Which of the following statements is true?","incorrect","Tue Aug 17 2021 19:22:59 GMT+0200 (Mitteleuropäische Sommerzeit)",1629220979541,"understanding_check2",1,FALSE,TRUE,FALSE
2647,NA,12920,21,4,258,"other","not at all","very strongly","Please rate how much you agree with the following statement: <br />","6","Tue Aug 17 2021 19:22:59 GMT+0200 (Mitteleuropäische Sommerzeit)",1629220979541,"sympathy_rating",1,FALSE,FALSE,FALSE
2644,NA,NA,22,2,258,"female",NA,NA,"Please select the topic you care about the most","AfD","Tue Aug 17 2021 17:25:37 GMT+0200 (Mitteleuropäische Sommerzeit)",1629213937617,"choice_of_political_topic",1,FALSE,FALSE,FALSE
2644,NA,NA,22,2,258,"female",NA,NA,"AfD winning the next federal election will be good for Germany","-5","Tue Aug 17 2021 17:25:37 GMT+0200 (Mitteleuropäische Sommerzeit)",1629213937617,"rate_statement",1,FALSE,FALSE,FALSE
2644,NA,NA,22,2,258,"female",NA,NA,"Call the police or do nothing ?","5","Tue Aug 17 2021 17:25:37 GMT+0200 (Mitteleuropäische Sommerzeit)",1629213937617,"experimental_trial",1,FALSE,FALSE,FALSE
2644,NA,3081,22,2,258,"female","very bad","very good","How did you feel about your choice ?","7","Tue Aug 17 2021 17:25:37 GMT+0200 (Mitteleuropäische Sommerzeit)",1629213937617,"fit_backstory_fake_rating",1,FALSE,FALSE,FALSE
2644,NA,NA,22,2,258,"female",NA,NA,"Which of the following is true about the previous study?","correct","Tue Aug 17 2021 17:25:37 GMT+0200 (Mitteleuropäische Sommerzeit)",1629213937617,"understanding_check",1,FALSE,FALSE,FALSE
2644,NA,NA,22,2,258,"female",NA,NA,"Please rate how much you agree or disagree with the following statements:","1","Tue Aug 17 2021 17:25:37 GMT+0200 (Mitteleuropäische Sommerzeit)",1629213937617,"identity_check_Pro",1,FALSE,FALSE,FALSE
2644,NA,NA,22,2,258,"female",NA,NA,"Please rate how much you agree or disagree with the following statements:","5","Tue Aug 17 2021 17:25:37 GMT+0200 (Mitteleuropäische Sommerzeit)",1629213937617,"identity_check_Anti",1,FALSE,FALSE,FALSE
2644,NA,11524,22,2,258,"female",NA,NA,"Which of the following statements is true?","correct","Tue Aug 17 2021 17:25:37 GMT+0200 (Mitteleuropäische Sommerzeit)",1629213937617,"understanding_check2",1,FALSE,FALSE,FALSE
2644,NA,14432,22,2,258,"female","not at all","very strongly","Please rate how much you agree with the following statement: <br />","6","Tue Aug 17 2021 17:25:37 GMT+0200 (Mitteleuropäische Sommerzeit)",1629213937617,"sympathy_rating",1,FALSE,FALSE,FALSE
2642,NA,NA,35,1,258,"prefer_not_to_say",NA,NA,"Please select the topic you care about the most","AfD","Tue Aug 17 2021 16:54:44 GMT+0200 (Mitteleuropäische Sommerzeit)",1629212084675,"choice_of_political_topic",1,FALSE,FALSE,FALSE
2642,NA,NA,35,1,258,"prefer_not_to_say",NA,NA,"AfD winning the next federal election will be good for Germany","5","Tue Aug 17 2021 16:54:44 GMT+0200 (Mitteleuropäische Sommerzeit)",1629212084675,"rate_statement",1,FALSE,FALSE,FALSE
2642,NA,NA,35,1,258,"prefer_not_to_say",NA,NA,"Call the police or do nothing ?","6","Tue Aug 17 2021 16:54:44 GMT+0200 (Mitteleuropäische Sommerzeit)",1629212084675,"experimental_trial",1,FALSE,FALSE,FALSE
2642,NA,5406,35,1,258,"prefer_not_to_say","very bad","very good","How did you feel about your choice ?","7","Tue Aug 17 2021 16:54:44 GMT+0200 (Mitteleuropäische Sommerzeit)",1629212084675,"fit_backstory_fake_rating",1,FALSE,FALSE,FALSE
2642,NA,NA,35,1,258,"prefer_not_to_say",NA,NA,"Which of the following is true about the previous study?","correct","Tue Aug 17 2021 16:54:44 GMT+0200 (Mitteleuropäische Sommerzeit)",1629212084675,"understanding_check",1,FALSE,FALSE,FALSE
2642,NA,NA,35,1,258,"prefer_not_to_say",NA,NA,"Please rate how much you agree or disagree with the following statements:","5","Tue Aug 17 2021 16:54:44 GMT+0200 (Mitteleuropäische Sommerzeit)",1629212084675,"identity_check_Pro",1,FALSE,FALSE,FALSE
2642,NA,NA,35,1,258,"prefer_not_to_say",NA,NA,"Please rate how much you agree or disagree with the following statements:","1","Tue Aug 17 2021 16:54:44 GMT+0200 (Mitteleuropäische Sommerzeit)",1629212084675,"identity_check_Anti",1,FALSE,FALSE,FALSE
2642,NA,23399,35,1,258,"prefer_not_to_say",NA,NA,"Which of the following statements is true?","incorrect","Tue Aug 17 2021 16:54:44 GMT+0200 (Mitteleuropäische Sommerzeit)",1629212084675,"understanding_check2",1,FALSE,TRUE,FALSE
2642,NA,17883,35,1,258,"prefer_not_to_say","not at all","very strongly","Please rate how much you agree with the following statement: <br />","4","Tue Aug 17 2021 16:54:44 GMT+0200 (Mitteleuropäische Sommerzeit)",1629212084675,"sympathy_rating",1,FALSE,FALSE,FALSE
2634,NA,NA,NA,4,258,NA,NA,NA,"Please select the topic you care about the most","Refugees","Tue Aug 17 2021 12:00:43 GMT+0200 (CEST)",1629194443774,"choice_of_political_topic",1,FALSE,FALSE,FALSE
2634,NA,NA,NA,4,258,NA,NA,NA,"Germany should open its borders for all refugees","3","Tue Aug 17 2021 12:00:43 GMT+0200 (CEST)",1629194443774,"rate_statement",1,FALSE,FALSE,FALSE
2634,NA,NA,NA,4,258,NA,NA,NA,"Call the police or do nothing ?","4","Tue Aug 17 2021 12:00:43 GMT+0200 (CEST)",1629194443774,"experimental_trial",1,FALSE,FALSE,FALSE
2634,NA,6029,NA,4,258,NA,"very bad","very good","How did you feel about your choice ?","4","Tue Aug 17 2021 12:00:43 GMT+0200 (CEST)",1629194443774,"fit_backstory_fake_rating",1,FALSE,FALSE,FALSE
2634,NA,NA,NA,4,258,NA,NA,NA,"Which of the following is true about the previous study?","correct","Tue Aug 17 2021 12:00:43 GMT+0200 (CEST)",1629194443774,"understanding_check",1,FALSE,FALSE,FALSE
2634,NA,NA,NA,4,258,NA,NA,NA,"Please rate how much you agree or disagree with the following statements:","6","Tue Aug 17 2021 12:00:43 GMT+0200 (CEST)",1629194443774,"identity_check_Pro",1,FALSE,FALSE,FALSE
2634,NA,NA,NA,4,258,NA,NA,NA,"Please rate how much you agree or disagree with the following statements:","1","Tue Aug 17 2021 12:00:43 GMT+0200 (CEST)",1629194443774,"identity_check_Anti",1,FALSE,FALSE,FALSE
2634,NA,8494,NA,4,258,NA,NA,NA,"Which of the following statements is true?","incorrect","Tue Aug 17 2021 12:00:43 GMT+0200 (CEST)",1629194443774,"understanding_check2",1,FALSE,TRUE,FALSE
2634,NA,5636,NA,4,258,NA,"not at all","very strongly","Please rate how much you agree with the following statement: <br />","6","Tue Aug 17 2021 12:00:43 GMT+0200 (CEST)",1629194443774,"sympathy_rating",1,FALSE,FALSE,FALSE
2633,NA,NA,19,4,258,"male",NA,NA,"Please select the topic you care about the most","AfD","Tue Aug 17 2021 11:39:36 GMT+0200 (Mitteleuropäische Sommerzeit)",1629193176520,"choice_of_political_topic",1,FALSE,FALSE,FALSE
2633,NA,NA,19,4,258,"male",NA,NA,"AfD winning the next federal election will be good for Germany","-3","Tue Aug 17 2021 11:39:36 GMT+0200 (Mitteleuropäische Sommerzeit)",1629193176520,"rate_statement",1,FALSE,FALSE,FALSE
2633,NA,NA,19,4,258,"male",NA,NA,"Call the police or do nothing ?","5","Tue Aug 17 2021 11:39:36 GMT+0200 (Mitteleuropäische Sommerzeit)",1629193176520,"experimental_trial",1,FALSE,FALSE,FALSE
2633,NA,6685,19,4,258,"male","very bad","very good","How did you feel about your choice ?","3","Tue Aug 17 2021 11:39:36 GMT+0200 (Mitteleuropäische Sommerzeit)",1629193176520,"fit_backstory_fake_rating",1,FALSE,FALSE,FALSE
2633,NA,NA,19,4,258,"male",NA,NA,"Which of the following is true about the previous study?","correct","Tue Aug 17 2021 11:39:36 GMT+0200 (Mitteleuropäische Sommerzeit)",1629193176520,"understanding_check",1,FALSE,FALSE,FALSE
2633,NA,NA,19,4,258,"male",NA,NA,"Please rate how much you agree or disagree with the following statements:","3","Tue Aug 17 2021 11:39:36 GMT+0200 (Mitteleuropäische Sommerzeit)",1629193176520,"identity_check_Pro",1,FALSE,FALSE,FALSE
2633,NA,NA,19,4,258,"male",NA,NA,"Please rate how much you agree or disagree with the following statements:","3","Tue Aug 17 2021 11:39:36 GMT+0200 (Mitteleuropäische Sommerzeit)",1629193176520,"identity_check_Anti",1,FALSE,FALSE,FALSE
2633,NA,23196,19,4,258,"male",NA,NA,"Which of the following statements is true?","correct","Tue Aug 17 2021 11:39:36 GMT+0200 (Mitteleuropäische Sommerzeit)",1629193176520,"understanding_check2",1,FALSE,FALSE,FALSE
2633,NA,14699,19,4,258,"male","not at all","very strongly","Please rate how much you agree with the following statement: <br />","1","Tue Aug 17 2021 11:39:36 GMT+0200 (Mitteleuropäische Sommerzeit)",1629193176520,"sympathy_rating",1,FALSE,FALSE,FALSE
2626,NA,NA,20,2,258,"female",NA,NA,"Please select the topic you care about the most","Feminism","Tue Aug 17 2021 09:36:55 GMT+0200 (Mitteleuropäische Sommerzeit)",1629185815749,"choice_of_political_topic",1,FALSE,FALSE,FALSE
2626,NA,NA,20,2,258,"female",NA,NA,"Feminism is important and beneficial to modern society","5","Tue Aug 17 2021 09:36:55 GMT+0200 (Mitteleuropäische Sommerzeit)",1629185815749,"rate_statement",1,FALSE,FALSE,FALSE
2626,NA,NA,20,2,258,"female",NA,NA,"Call the police or do nothing ?","4","Tue Aug 17 2021 09:36:55 GMT+0200 (Mitteleuropäische Sommerzeit)",1629185815749,"experimental_trial",1,FALSE,FALSE,FALSE
2626,NA,3983,20,2,258,"female","very bad","very good","How did you feel about your choice ?","3","Tue Aug 17 2021 09:36:55 GMT+0200 (Mitteleuropäische Sommerzeit)",1629185815749,"fit_backstory_fake_rating",1,FALSE,FALSE,FALSE
2626,NA,NA,20,2,258,"female",NA,NA,"Which of the following is true about the previous study?","correct","Tue Aug 17 2021 09:36:55 GMT+0200 (Mitteleuropäische Sommerzeit)",1629185815749,"understanding_check",1,FALSE,FALSE,FALSE
2626,NA,NA,20,2,258,"female",NA,NA,"Please rate how much you agree or disagree with the following statements:","5","Tue Aug 17 2021 09:36:55 GMT+0200 (Mitteleuropäische Sommerzeit)",1629185815749,"identity_check_Pro",1,FALSE,FALSE,FALSE
2626,NA,NA,20,2,258,"female",NA,NA,"Please rate how much you agree or disagree with the following statements:","4","Tue Aug 17 2021 09:36:55 GMT+0200 (Mitteleuropäische Sommerzeit)",1629185815749,"identity_check_Anti",1,FALSE,FALSE,FALSE
2626,NA,7709,20,2,258,"female",NA,NA,"Which of the following statements is true?","correct","Tue Aug 17 2021 09:36:55 GMT+0200 (Mitteleuropäische Sommerzeit)",1629185815749,"understanding_check2",1,FALSE,FALSE,FALSE
2626,NA,6698,20,2,258,"female","not at all","very strongly","Please rate how much you agree with the following statement: <br />","6","Tue Aug 17 2021 09:36:55 GMT+0200 (Mitteleuropäische Sommerzeit)",1629185815749,"sympathy_rating",1,FALSE,FALSE,FALSE
2625,NA,NA,25,3,258,"female",NA,NA,"Please select the topic you care about the most","Gun control","Tue Aug 17 2021 09:09:11 GMT+0200 (Mitteleuropäische Sommerzeit)",1629184151681,"choice_of_political_topic",1,FALSE,FALSE,FALSE
2625,NA,NA,25,3,258,"female",NA,NA,"Adults should have the right to carry a concealed handgun.","-3","Tue Aug 17 2021 09:09:11 GMT+0200 (Mitteleuropäische Sommerzeit)",1629184151681,"rate_statement",1,FALSE,FALSE,FALSE
2625,NA,NA,25,3,258,"female",NA,NA,"Call the police or do nothing ?","2","Tue Aug 17 2021 09:09:11 GMT+0200 (Mitteleuropäische Sommerzeit)",1629184151681,"experimental_trial",1,FALSE,FALSE,FALSE
2625,NA,9476,25,3,258,"female","very bad","very good","How did you feel about your choice ?","3","Tue Aug 17 2021 09:09:11 GMT+0200 (Mitteleuropäische Sommerzeit)",1629184151681,"fit_backstory_fake_rating",1,FALSE,FALSE,FALSE
2625,NA,NA,25,3,258,"female",NA,NA,"Which of the following is true about the previous study?","correct","Tue Aug 17 2021 09:09:11 GMT+0200 (Mitteleuropäische Sommerzeit)",1629184151681,"understanding_check",1,FALSE,FALSE,FALSE
2625,NA,NA,25,3,258,"female",NA,NA,"Please rate how much you agree or disagree with the following statements:","1","Tue Aug 17 2021 09:09:11 GMT+0200 (Mitteleuropäische Sommerzeit)",1629184151681,"identity_check_Pro",1,FALSE,FALSE,FALSE
2625,NA,NA,25,3,258,"female",NA,NA,"Please rate how much you agree or disagree with the following statements:","4","Tue Aug 17 2021 09:09:11 GMT+0200 (Mitteleuropäische Sommerzeit)",1629184151681,"identity_check_Anti",1,FALSE,FALSE,FALSE
2625,NA,13944,25,3,258,"female",NA,NA,"Which of the following statements is true?","correct","Tue Aug 17 2021 09:09:11 GMT+0200 (Mitteleuropäische Sommerzeit)",1629184151681,"understanding_check2",1,FALSE,FALSE,FALSE
2625,NA,19960,25,3,258,"female","not at all","very strongly","Please rate how much you agree with the following statement: <br />","6","Tue Aug 17 2021 09:09:11 GMT+0200 (Mitteleuropäische Sommerzeit)",1629184151681,"sympathy_rating",1,FALSE,FALSE,FALSE
2624,NA,NA,23,2,258,"female",NA,NA,"Please select the topic you care about the most","Refugees","Mon Aug 16 2021 23:37:58 GMT+0200 (Central European Summer Time)",1629149878263,"choice_of_political_topic",1,FALSE,FALSE,FALSE
2624,NA,NA,23,2,258,"female",NA,NA,"Germany should open its borders for all refugees","5","Mon Aug 16 2021 23:37:58 GMT+0200 (Central European Summer Time)",1629149878263,"rate_statement",1,FALSE,FALSE,FALSE
2624,NA,NA,23,2,258,"female",NA,NA,"Call the police or do nothing ?","6","Mon Aug 16 2021 23:37:58 GMT+0200 (Central European Summer Time)",1629149878263,"experimental_trial",1,FALSE,FALSE,FALSE
2624,NA,3372,23,2,258,"female","very bad","very good","How did you feel about your choice ?","7","Mon Aug 16 2021 23:37:58 GMT+0200 (Central European Summer Time)",1629149878263,"fit_backstory_fake_rating",1,FALSE,FALSE,FALSE
2624,NA,NA,23,2,258,"female",NA,NA,"Which of the following is true about the previous study?","correct","Mon Aug 16 2021 23:37:58 GMT+0200 (Central European Summer Time)",1629149878263,"understanding_check",1,FALSE,FALSE,FALSE
2624,NA,NA,23,2,258,"female",NA,NA,"Please rate how much you agree or disagree with the following statements:","7","Mon Aug 16 2021 23:37:58 GMT+0200 (Central European Summer Time)",1629149878263,"identity_check_Pro",1,FALSE,FALSE,FALSE
2624,NA,NA,23,2,258,"female",NA,NA,"Please rate how much you agree or disagree with the following statements:","1","Mon Aug 16 2021 23:37:58 GMT+0200 (Central European Summer Time)",1629149878263,"identity_check_Anti",1,FALSE,FALSE,FALSE
2624,NA,8164,23,2,258,"female",NA,NA,"Which of the following statements is true?","correct","Mon Aug 16 2021 23:37:58 GMT+0200 (Central European Summer Time)",1629149878263,"understanding_check2",1,FALSE,FALSE,FALSE
2624,NA,5511,23,2,258,"female","not at all","very strongly","Please rate how much you agree with the following statement: <br />","7","Mon Aug 16 2021 23:37:58 GMT+0200 (Central European Summer Time)",1629149878263,"sympathy_rating",1,FALSE,FALSE,FALSE
2623,NA,NA,21,3,258,"female",NA,NA,"Please select the topic you care about the most","Feminism","Mon Aug 16 2021 23:08:56 GMT+0200 (CEST)",1629148136395,"choice_of_political_topic",1,FALSE,FALSE,FALSE
2623,NA,NA,21,3,258,"female",NA,NA,"Feminism is important and beneficial to modern society","4","Mon Aug 16 2021 23:08:56 GMT+0200 (CEST)",1629148136395,"rate_statement",1,FALSE,FALSE,FALSE
2623,NA,NA,21,3,258,"female",NA,NA,"Call the police or do nothing ?","2","Mon Aug 16 2021 23:08:56 GMT+0200 (CEST)",1629148136395,"experimental_trial",1,FALSE,FALSE,FALSE
2623,NA,4504,21,3,258,"female","very bad","very good","How did you feel about your choice ?","2","Mon Aug 16 2021 23:08:56 GMT+0200 (CEST)",1629148136395,"fit_backstory_fake_rating",1,FALSE,FALSE,FALSE
2623,NA,NA,21,3,258,"female",NA,NA,"Which of the following is true about the previous study?","correct","Mon Aug 16 2021 23:08:56 GMT+0200 (CEST)",1629148136395,"understanding_check",1,FALSE,FALSE,FALSE
2623,NA,NA,21,3,258,"female",NA,NA,"Please rate how much you agree or disagree with the following statements:","6","Mon Aug 16 2021 23:08:56 GMT+0200 (CEST)",1629148136395,"identity_check_Pro",1,FALSE,FALSE,FALSE
2623,NA,NA,21,3,258,"female",NA,NA,"Please rate how much you agree or disagree with the following statements:","2","Mon Aug 16 2021 23:08:56 GMT+0200 (CEST)",1629148136395,"identity_check_Anti",1,FALSE,FALSE,FALSE
2623,NA,16119,21,3,258,"female",NA,NA,"Which of the following statements is true?","correct","Mon Aug 16 2021 23:08:56 GMT+0200 (CEST)",1629148136395,"understanding_check2",1,FALSE,FALSE,FALSE
2623,NA,6574,21,3,258,"female","not at all","very strongly","Please rate how much you agree with the following statement: <br />","6","Mon Aug 16 2021 23:08:56 GMT+0200 (CEST)",1629148136395,"sympathy_rating",1,FALSE,FALSE,FALSE
2622,NA,NA,27,4,258,"male",NA,NA,"Please select the topic you care about the most","Refugees","Mon Aug 16 2021 22:43:24 GMT+0200 (Central European Summer Time)",1629146604475,"choice_of_political_topic",1,FALSE,FALSE,FALSE
2622,NA,NA,27,4,258,"male",NA,NA,"Germany should open its borders for all refugees","-5","Mon Aug 16 2021 22:43:24 GMT+0200 (Central European Summer Time)",1629146604475,"rate_statement",1,FALSE,FALSE,FALSE
2622,NA,NA,27,4,258,"male",NA,NA,"Call the police or do nothing ?","4","Mon Aug 16 2021 22:43:24 GMT+0200 (Central European Summer Time)",1629146604475,"experimental_trial",1,FALSE,FALSE,FALSE
2622,NA,8429,27,4,258,"male","very bad","very good","How did you feel about your choice ?","7","Mon Aug 16 2021 22:43:24 GMT+0200 (Central European Summer Time)",1629146604475,"fit_backstory_fake_rating",1,FALSE,FALSE,FALSE
2622,NA,NA,27,4,258,"male",NA,NA,"Which of the following is true about the previous study?","correct","Mon Aug 16 2021 22:43:24 GMT+0200 (Central European Summer Time)",1629146604475,"understanding_check",1,FALSE,FALSE,FALSE
2622,NA,NA,27,4,258,"male",NA,NA,"Please rate how much you agree or disagree with the following statements:","1","Mon Aug 16 2021 22:43:24 GMT+0200 (Central European Summer Time)",1629146604475,"identity_check_Pro",1,FALSE,FALSE,FALSE
2622,NA,NA,27,4,258,"male",NA,NA,"Please rate how much you agree or disagree with the following statements:","1","Mon Aug 16 2021 22:43:24 GMT+0200 (Central European Summer Time)",1629146604475,"identity_check_Anti",1,FALSE,FALSE,FALSE
2622,NA,17498,27,4,258,"male",NA,NA,"Which of the following statements is true?","incorrect","Mon Aug 16 2021 22:43:24 GMT+0200 (Central European Summer Time)",1629146604475,"understanding_check2",1,FALSE,TRUE,FALSE
2622,NA,24085,27,4,258,"male","not at all","very strongly","Please rate how much you agree with the following statement: <br />","4","Mon Aug 16 2021 22:43:24 GMT+0200 (Central European Summer Time)",1629146604475,"sympathy_rating",1,FALSE,FALSE,FALSE
2620,NA,NA,28,2,258,"female",NA,NA,"Please select the topic you care about the most","Refugees","Mon Aug 16 2021 19:59:07 GMT+0200 (CEST)",1629136747625,"choice_of_political_topic",1,FALSE,FALSE,FALSE
2620,NA,NA,28,2,258,"female",NA,NA,"Germany should open its borders for all refugees","3","Mon Aug 16 2021 19:59:07 GMT+0200 (CEST)",1629136747625,"rate_statement",1,FALSE,FALSE,FALSE
2620,NA,NA,28,2,258,"female",NA,NA,"Call the police or do nothing ?","6","Mon Aug 16 2021 19:59:07 GMT+0200 (CEST)",1629136747625,"experimental_trial",1,FALSE,FALSE,FALSE
2620,NA,6644,28,2,258,"female","very bad","very good","How did you feel about your choice ?","6","Mon Aug 16 2021 19:59:07 GMT+0200 (CEST)",1629136747625,"fit_backstory_fake_rating",1,FALSE,FALSE,FALSE
2620,NA,NA,28,2,258,"female",NA,NA,"Which of the following is true about the previous study?","correct","Mon Aug 16 2021 19:59:07 GMT+0200 (CEST)",1629136747625,"understanding_check",1,FALSE,FALSE,FALSE
2620,NA,NA,28,2,258,"female",NA,NA,"Please rate how much you agree or disagree with the following statements:","7","Mon Aug 16 2021 19:59:07 GMT+0200 (CEST)",1629136747625,"identity_check_Pro",1,FALSE,FALSE,FALSE
2620,NA,NA,28,2,258,"female",NA,NA,"Please rate how much you agree or disagree with the following statements:","1","Mon Aug 16 2021 19:59:07 GMT+0200 (CEST)",1629136747625,"identity_check_Anti",1,FALSE,FALSE,FALSE
2620,NA,81594,28,2,258,"female",NA,NA,"Which of the following statements is true?","correct","Mon Aug 16 2021 19:59:07 GMT+0200 (CEST)",1629136747625,"understanding_check2",1,FALSE,FALSE,FALSE
2620,NA,61904,28,2,258,"female","not at all","very strongly","Please rate how much you agree with the following statement: <br />","6","Mon Aug 16 2021 19:59:07 GMT+0200 (CEST)",1629136747625,"sympathy_rating",1,FALSE,FALSE,FALSE
2619,NA,NA,22,1,258,"female",NA,NA,"Please select the topic you care about the most","Refugees","Mon Aug 16 2021 19:29:04 GMT+0200 (Mitteleuropäische Sommerzeit)",1629134944903,"choice_of_political_topic",1,FALSE,FALSE,FALSE
2619,NA,NA,22,1,258,"female",NA,NA,"Germany should open its borders for all refugees","5","Mon Aug 16 2021 19:29:04 GMT+0200 (Mitteleuropäische Sommerzeit)",1629134944903,"rate_statement",1,FALSE,FALSE,FALSE
2619,NA,NA,22,1,258,"female",NA,NA,"Call the police or do nothing ?","4","Mon Aug 16 2021 19:29:04 GMT+0200 (Mitteleuropäische Sommerzeit)",1629134944903,"experimental_trial",1,FALSE,FALSE,FALSE
2619,NA,19868,22,1,258,"female","very bad","very good","How did you feel about your choice ?","2","Mon Aug 16 2021 19:29:04 GMT+0200 (Mitteleuropäische Sommerzeit)",1629134944903,"fit_backstory_fake_rating",1,FALSE,FALSE,FALSE
2619,NA,NA,22,1,258,"female",NA,NA,"Which of the following is true about the previous study?","correct","Mon Aug 16 2021 19:29:04 GMT+0200 (Mitteleuropäische Sommerzeit)",1629134944903,"understanding_check",1,FALSE,FALSE,FALSE
2619,NA,NA,22,1,258,"female",NA,NA,"Please rate how much you agree or disagree with the following statements:","7","Mon Aug 16 2021 19:29:04 GMT+0200 (Mitteleuropäische Sommerzeit)",1629134944903,"identity_check_Pro",1,FALSE,FALSE,FALSE
2619,NA,NA,22,1,258,"female",NA,NA,"Please rate how much you agree or disagree with the following statements:","1","Mon Aug 16 2021 19:29:04 GMT+0200 (Mitteleuropäische Sommerzeit)",1629134944903,"identity_check_Anti",1,FALSE,FALSE,FALSE
2619,NA,16888,22,1,258,"female",NA,NA,"Which of the following statements is true?","correct","Mon Aug 16 2021 19:29:04 GMT+0200 (Mitteleuropäische Sommerzeit)",1629134944903,"understanding_check2",1,FALSE,FALSE,FALSE
2619,NA,13235,22,1,258,"female","not at all","very strongly","Please rate how much you agree with the following statement: <br />","6","Mon Aug 16 2021 19:29:04 GMT+0200 (Mitteleuropäische Sommerzeit)",1629134944903,"sympathy_rating",1,FALSE,FALSE,FALSE
2617,NA,NA,25,2,258,"male",NA,NA,"Please select the topic you care about the most","Drug legalization","Mon Aug 16 2021 18:16:56 GMT+0200 (Central European Summer Time)",1629130616174,"choice_of_political_topic",1,FALSE,FALSE,FALSE
2617,NA,NA,25,2,258,"male",NA,NA,"Possession of drugs should be legalized","3","Mon Aug 16 2021 18:16:56 GMT+0200 (Central European Summer Time)",1629130616174,"rate_statement",1,FALSE,FALSE,FALSE
2617,NA,NA,25,2,258,"male",NA,NA,"Call the police or do nothing ?","6","Mon Aug 16 2021 18:16:56 GMT+0200 (Central European Summer Time)",1629130616174,"experimental_trial",1,FALSE,FALSE,FALSE
2617,NA,2124,25,2,258,"male","very bad","very good","How did you feel about your choice ?","6","Mon Aug 16 2021 18:16:56 GMT+0200 (Central European Summer Time)",1629130616174,"fit_backstory_fake_rating",1,FALSE,FALSE,FALSE
2617,NA,NA,25,2,258,"male",NA,NA,"Which of the following is true about the previous study?","correct","Mon Aug 16 2021 18:16:56 GMT+0200 (Central European Summer Time)",1629130616174,"understanding_check",1,FALSE,FALSE,FALSE
2617,NA,NA,25,2,258,"male",NA,NA,"Please rate how much you agree or disagree with the following statements:","6","Mon Aug 16 2021 18:16:56 GMT+0200 (Central European Summer Time)",1629130616174,"identity_check_Pro",1,FALSE,FALSE,FALSE
2617,NA,NA,25,2,258,"male",NA,NA,"Please rate how much you agree or disagree with the following statements:","2","Mon Aug 16 2021 18:16:56 GMT+0200 (Central European Summer Time)",1629130616174,"identity_check_Anti",1,FALSE,FALSE,FALSE
2617,NA,4282,25,2,258,"male",NA,NA,"Which of the following statements is true?","incorrect","Mon Aug 16 2021 18:16:56 GMT+0200 (Central European Summer Time)",1629130616174,"understanding_check2",1,FALSE,TRUE,FALSE
2617,NA,6906,25,2,258,"male","not at all","very strongly","Please rate how much you agree with the following statement: <br />","6","Mon Aug 16 2021 18:16:56 GMT+0200 (Central European Summer Time)",1629130616174,"sympathy_rating",1,FALSE,FALSE,FALSE
2616,NA,NA,26,2,258,"male",NA,NA,"Please select the topic you care about the most","Feminism","Mon Aug 16 2021 18:13:08 GMT+0200 (Central European Summer Time)",1629130388369,"choice_of_political_topic",1,FALSE,FALSE,FALSE
2616,NA,NA,26,2,258,"male",NA,NA,"Feminism is important and beneficial to modern society","3","Mon Aug 16 2021 18:13:08 GMT+0200 (Central European Summer Time)",1629130388369,"rate_statement",1,FALSE,FALSE,FALSE
2616,NA,NA,26,2,258,"male",NA,NA,"Call the police or do nothing ?","6","Mon Aug 16 2021 18:13:08 GMT+0200 (Central European Summer Time)",1629130388369,"experimental_trial",1,FALSE,FALSE,FALSE
2616,NA,11363,26,2,258,"male","very bad","very good","How did you feel about your choice ?","5","Mon Aug 16 2021 18:13:08 GMT+0200 (Central European Summer Time)",1629130388369,"fit_backstory_fake_rating",1,FALSE,FALSE,FALSE
2616,NA,NA,26,2,258,"male",NA,NA,"Which of the following is true about the previous study?","correct","Mon Aug 16 2021 18:13:08 GMT+0200 (Central European Summer Time)",1629130388369,"understanding_check",1,FALSE,FALSE,FALSE
2616,NA,NA,26,2,258,"male",NA,NA,"Please rate how much you agree or disagree with the following statements:","6","Mon Aug 16 2021 18:13:08 GMT+0200 (Central European Summer Time)",1629130388369,"identity_check_Pro",1,FALSE,FALSE,FALSE
2616,NA,NA,26,2,258,"male",NA,NA,"Please rate how much you agree or disagree with the following statements:","2","Mon Aug 16 2021 18:13:08 GMT+0200 (Central European Summer Time)",1629130388369,"identity_check_Anti",1,FALSE,FALSE,FALSE
2616,NA,9123,26,2,258,"male",NA,NA,"Which of the following statements is true?","correct","Mon Aug 16 2021 18:13:08 GMT+0200 (Central European Summer Time)",1629130388369,"understanding_check2",1,FALSE,FALSE,FALSE
2616,NA,9301,26,2,258,"male","not at all","very strongly","Please rate how much you agree with the following statement: <br />","6","Mon Aug 16 2021 18:13:08 GMT+0200 (Central European Summer Time)",1629130388369,"sympathy_rating",1,FALSE,FALSE,FALSE
2615,NA,NA,20,3,258,"male",NA,NA,"Please select the topic you care about the most","Refugees","Mon Aug 16 2021 16:58:08 GMT+0200 (Mitteleuropäische Sommerzeit)",1629125888644,"choice_of_political_topic",1,FALSE,FALSE,FALSE
2615,NA,NA,20,3,258,"male",NA,NA,"Germany should open its borders for all refugees","-5","Mon Aug 16 2021 16:58:08 GMT+0200 (Mitteleuropäische Sommerzeit)",1629125888644,"rate_statement",1,FALSE,FALSE,FALSE
2615,NA,NA,20,3,258,"male",NA,NA,"Call the police or do nothing ?","1","Mon Aug 16 2021 16:58:08 GMT+0200 (Mitteleuropäische Sommerzeit)",1629125888644,"experimental_trial",1,FALSE,FALSE,FALSE
2615,NA,3158,20,3,258,"male","very bad","very good","How did you feel about your choice ?","7","Mon Aug 16 2021 16:58:08 GMT+0200 (Mitteleuropäische Sommerzeit)",1629125888644,"fit_backstory_fake_rating",1,FALSE,FALSE,FALSE
2615,NA,NA,20,3,258,"male",NA,NA,"Which of the following is true about the previous study?","correct","Mon Aug 16 2021 16:58:08 GMT+0200 (Mitteleuropäische Sommerzeit)",1629125888644,"understanding_check",1,FALSE,FALSE,FALSE
2615,NA,NA,20,3,258,"male",NA,NA,"Please rate how much you agree or disagree with the following statements:","4","Mon Aug 16 2021 16:58:08 GMT+0200 (Mitteleuropäische Sommerzeit)",1629125888644,"identity_check_Pro",1,FALSE,FALSE,FALSE
2615,NA,NA,20,3,258,"male",NA,NA,"Please rate how much you agree or disagree with the following statements:","5","Mon Aug 16 2021 16:58:08 GMT+0200 (Mitteleuropäische Sommerzeit)",1629125888644,"identity_check_Anti",1,FALSE,FALSE,FALSE
2615,NA,17653,20,3,258,"male",NA,NA,"Which of the following statements is true?","correct","Mon Aug 16 2021 16:58:08 GMT+0200 (Mitteleuropäische Sommerzeit)",1629125888644,"understanding_check2",1,FALSE,FALSE,FALSE
2615,NA,18611,20,3,258,"male","not at all","very strongly","Please rate how much you agree with the following statement: <br />","2","Mon Aug 16 2021 16:58:08 GMT+0200 (Mitteleuropäische Sommerzeit)",1629125888644,"sympathy_rating",1,FALSE,FALSE,FALSE
2613,NA,NA,22,1,258,"male",NA,NA,"Please select the topic you care about the most","Drug legalization","Mon Aug 16 2021 15:24:29 GMT+0200 (Mitteleuropäische Sommerzeit)",1629120269418,"choice_of_political_topic",1,FALSE,FALSE,FALSE
2613,NA,NA,22,1,258,"male",NA,NA,"Possession of drugs should be legalized","5","Mon Aug 16 2021 15:24:29 GMT+0200 (Mitteleuropäische Sommerzeit)",1629120269418,"rate_statement",1,FALSE,FALSE,FALSE
2613,NA,NA,22,1,258,"male",NA,NA,"Call the police or do nothing ?","5","Mon Aug 16 2021 15:24:29 GMT+0200 (Mitteleuropäische Sommerzeit)",1629120269418,"experimental_trial",1,FALSE,FALSE,FALSE
2613,NA,3779,22,1,258,"male","very bad","very good","How did you feel about your choice ?","6","Mon Aug 16 2021 15:24:29 GMT+0200 (Mitteleuropäische Sommerzeit)",1629120269418,"fit_backstory_fake_rating",1,FALSE,FALSE,FALSE
2613,NA,NA,22,1,258,"male",NA,NA,"Which of the following is true about the previous study?","correct","Mon Aug 16 2021 15:24:29 GMT+0200 (Mitteleuropäische Sommerzeit)",1629120269418,"understanding_check",1,FALSE,FALSE,FALSE
2613,NA,NA,22,1,258,"male",NA,NA,"Please rate how much you agree or disagree with the following statements:","4","Mon Aug 16 2021 15:24:29 GMT+0200 (Mitteleuropäische Sommerzeit)",1629120269418,"identity_check_Pro",1,FALSE,FALSE,FALSE
2613,NA,NA,22,1,258,"male",NA,NA,"Please rate how much you agree or disagree with the following statements:","1","Mon Aug 16 2021 15:24:29 GMT+0200 (Mitteleuropäische Sommerzeit)",1629120269418,"identity_check_Anti",1,FALSE,FALSE,FALSE
2613,NA,11408,22,1,258,"male",NA,NA,"Which of the following statements is true?","correct","Mon Aug 16 2021 15:24:29 GMT+0200 (Mitteleuropäische Sommerzeit)",1629120269418,"understanding_check2",1,FALSE,FALSE,FALSE
2613,NA,10930,22,1,258,"male","not at all","very strongly","Please rate how much you agree with the following statement: <br />","6","Mon Aug 16 2021 15:24:29 GMT+0200 (Mitteleuropäische Sommerzeit)",1629120269418,"sympathy_rating",1,FALSE,FALSE,FALSE
2612,NA,NA,28,3,258,"male",NA,NA,"Please select the topic you care about the most","Refugees","Mon Aug 16 2021 15:28:57 GMT+0200 (Central European Summer Time)",1629120537435,"choice_of_political_topic",1,FALSE,FALSE,FALSE
2612,NA,NA,28,3,258,"male",NA,NA,"Germany should open its borders for all refugees","4","Mon Aug 16 2021 15:28:57 GMT+0200 (Central European Summer Time)",1629120537435,"rate_statement",1,FALSE,FALSE,FALSE
2612,NA,NA,28,3,258,"male",NA,NA,"Call the police or do nothing ?","1","Mon Aug 16 2021 15:28:57 GMT+0200 (Central European Summer Time)",1629120537435,"experimental_trial",1,FALSE,FALSE,FALSE
2612,NA,5152,28,3,258,"male","very bad","very good","How did you feel about your choice ?","7","Mon Aug 16 2021 15:28:57 GMT+0200 (Central European Summer Time)",1629120537435,"fit_backstory_fake_rating",1,FALSE,FALSE,FALSE
2612,NA,NA,28,3,258,"male",NA,NA,"Which of the following is true about the previous study?","correct","Mon Aug 16 2021 15:28:57 GMT+0200 (Central European Summer Time)",1629120537435,"understanding_check",1,FALSE,FALSE,FALSE
2612,NA,NA,28,3,258,"male",NA,NA,"Please rate how much you agree or disagree with the following statements:","7","Mon Aug 16 2021 15:28:57 GMT+0200 (Central European Summer Time)",1629120537435,"identity_check_Pro",1,FALSE,FALSE,FALSE
2612,NA,NA,28,3,258,"male",NA,NA,"Please rate how much you agree or disagree with the following statements:","1","Mon Aug 16 2021 15:28:57 GMT+0200 (Central European Summer Time)",1629120537435,"identity_check_Anti",1,FALSE,FALSE,FALSE
2612,NA,46485,28,3,258,"male",NA,NA,"Which of the following statements is true?","correct","Mon Aug 16 2021 15:28:57 GMT+0200 (Central European Summer Time)",1629120537435,"understanding_check2",1,FALSE,FALSE,FALSE
2612,NA,15757,28,3,258,"male","not at all","very strongly","Please rate how much you agree with the following statement: <br />","4","Mon Aug 16 2021 15:28:57 GMT+0200 (Central European Summer Time)",1629120537435,"sympathy_rating",1,FALSE,FALSE,FALSE
2611,NA,NA,27,1,258,"male",NA,NA,"Please select the topic you care about the most","Drug legalization","Mon Aug 16 2021 15:16:46 GMT+0200 (Mitteleuropäische Sommerzeit)",1629119806185,"choice_of_political_topic",1,FALSE,FALSE,FALSE
2611,NA,NA,27,1,258,"male",NA,NA,"Possession of drugs should be legalized","4","Mon Aug 16 2021 15:16:46 GMT+0200 (Mitteleuropäische Sommerzeit)",1629119806185,"rate_statement",1,FALSE,FALSE,FALSE
2611,NA,NA,27,1,258,"male",NA,NA,"Call the police or do nothing ?","1","Mon Aug 16 2021 15:16:46 GMT+0200 (Mitteleuropäische Sommerzeit)",1629119806185,"experimental_trial",1,FALSE,FALSE,FALSE
2611,NA,22790,27,1,258,"male","very bad","very good","How did you feel about your choice ?","7","Mon Aug 16 2021 15:16:46 GMT+0200 (Mitteleuropäische Sommerzeit)",1629119806185,"fit_backstory_fake_rating",1,FALSE,FALSE,FALSE
2611,NA,NA,27,1,258,"male",NA,NA,"Which of the following is true about the previous study?","correct","Mon Aug 16 2021 15:16:46 GMT+0200 (Mitteleuropäische Sommerzeit)",1629119806185,"understanding_check",1,FALSE,FALSE,FALSE
2611,NA,NA,27,1,258,"male",NA,NA,"Please rate how much you agree or disagree with the following statements:","5","Mon Aug 16 2021 15:16:46 GMT+0200 (Mitteleuropäische Sommerzeit)",1629119806185,"identity_check_Pro",1,FALSE,FALSE,FALSE
2611,NA,NA,27,1,258,"male",NA,NA,"Please rate how much you agree or disagree with the following statements:","3","Mon Aug 16 2021 15:16:46 GMT+0200 (Mitteleuropäische Sommerzeit)",1629119806185,"identity_check_Anti",1,FALSE,FALSE,FALSE
2611,NA,9869,27,1,258,"male",NA,NA,"Which of the following statements is true?","correct","Mon Aug 16 2021 15:16:46 GMT+0200 (Mitteleuropäische Sommerzeit)",1629119806185,"understanding_check2",1,FALSE,FALSE,FALSE
2611,NA,13877,27,1,258,"male","not at all","very strongly","Please rate how much you agree with the following statement: <br />","6","Mon Aug 16 2021 15:16:46 GMT+0200 (Mitteleuropäische Sommerzeit)",1629119806185,"sympathy_rating",1,FALSE,FALSE,FALSE
2607,NA,NA,32,1,258,"male",NA,NA,"Please select the topic you care about the most","Gun control","Mon Aug 16 2021 14:47:58 GMT+0200 (Central European Summer Time)",1629118078410,"choice_of_political_topic",1,FALSE,FALSE,FALSE
2607,NA,NA,32,1,258,"male",NA,NA,"Adults should have the right to carry a concealed handgun.","-5","Mon Aug 16 2021 14:47:58 GMT+0200 (Central European Summer Time)",1629118078410,"rate_statement",1,FALSE,FALSE,FALSE
2607,NA,NA,32,1,258,"male",NA,NA,"Call the police or do nothing ?","1","Mon Aug 16 2021 14:47:58 GMT+0200 (Central European Summer Time)",1629118078410,"experimental_trial",1,FALSE,FALSE,FALSE
2607,NA,4218,32,1,258,"male","very bad","very good","How did you feel about your choice ?","4","Mon Aug 16 2021 14:47:58 GMT+0200 (Central European Summer Time)",1629118078410,"fit_backstory_fake_rating",1,FALSE,FALSE,FALSE
2607,NA,NA,32,1,258,"male",NA,NA,"Which of the following is true about the previous study?","correct","Mon Aug 16 2021 14:47:58 GMT+0200 (Central European Summer Time)",1629118078410,"understanding_check",1,FALSE,FALSE,FALSE
2607,NA,NA,32,1,258,"male",NA,NA,"Please rate how much you agree or disagree with the following statements:","1","Mon Aug 16 2021 14:47:58 GMT+0200 (Central European Summer Time)",1629118078410,"identity_check_Pro",1,FALSE,FALSE,FALSE
2607,NA,NA,32,1,258,"male",NA,NA,"Please rate how much you agree or disagree with the following statements:","7","Mon Aug 16 2021 14:47:58 GMT+0200 (Central European Summer Time)",1629118078410,"identity_check_Anti",1,FALSE,FALSE,FALSE
2607,NA,6439,32,1,258,"male",NA,NA,"Which of the following statements is true?","correct","Mon Aug 16 2021 14:47:58 GMT+0200 (Central European Summer Time)",1629118078410,"understanding_check2",1,FALSE,FALSE,FALSE
2607,NA,10944,32,1,258,"male","not at all","very strongly","Please rate how much you agree with the following statement: <br />","4","Mon Aug 16 2021 14:47:58 GMT+0200 (Central European Summer Time)",1629118078410,"sympathy_rating",1,FALSE,FALSE,FALSE
2606,NA,NA,29,2,258,"male",NA,NA,"Please select the topic you care about the most","Refugees","Mon Aug 16 2021 18:16:31 GMT+0530 (India Standard Time)",1629117991799,"choice_of_political_topic",1,FALSE,FALSE,FALSE
2606,NA,NA,29,2,258,"male",NA,NA,"Germany should open its borders for all refugees","-2","Mon Aug 16 2021 18:16:31 GMT+0530 (India Standard Time)",1629117991799,"rate_statement",1,FALSE,FALSE,FALSE
2606,NA,NA,29,2,258,"male",NA,NA,"Call the police or do nothing ?","3","Mon Aug 16 2021 18:16:31 GMT+0530 (India Standard Time)",1629117991799,"experimental_trial",1,FALSE,FALSE,FALSE
2606,NA,2727,29,2,258,"male","very bad","very good","How did you feel about your choice ?","7","Mon Aug 16 2021 18:16:31 GMT+0530 (India Standard Time)",1629117991799,"fit_backstory_fake_rating",1,FALSE,FALSE,FALSE
2606,NA,NA,29,2,258,"male",NA,NA,"Which of the following is true about the previous study?","correct","Mon Aug 16 2021 18:16:31 GMT+0530 (India Standard Time)",1629117991799,"understanding_check",1,FALSE,FALSE,FALSE
2606,NA,NA,29,2,258,"male",NA,NA,"Please rate how much you agree or disagree with the following statements:","1","Mon Aug 16 2021 18:16:31 GMT+0530 (India Standard Time)",1629117991799,"identity_check_Pro",1,FALSE,FALSE,FALSE
2606,NA,NA,29,2,258,"male",NA,NA,"Please rate how much you agree or disagree with the following statements:","1","Mon Aug 16 2021 18:16:31 GMT+0530 (India Standard Time)",1629117991799,"identity_check_Anti",1,FALSE,FALSE,FALSE
2606,NA,11823,29,2,258,"male",NA,NA,"Which of the following statements is true?","incorrect","Mon Aug 16 2021 18:16:31 GMT+0530 (India Standard Time)",1629117991799,"understanding_check2",1,FALSE,TRUE,FALSE
2606,NA,8038,29,2,258,"male","not at all","very strongly","Please rate how much you agree with the following statement: <br />","1","Mon Aug 16 2021 18:16:31 GMT+0530 (India Standard Time)",1629117991799,"sympathy_rating",1,FALSE,FALSE,FALSE
2605,NA,NA,28,2,258,"male",NA,NA,"Please select the topic you care about the most","Feminism","Mon Aug 16 2021 14:43:27 GMT+0200 (Mitteleuropäische Sommerzeit)",1629117807416,"choice_of_political_topic",1,FALSE,FALSE,FALSE
2605,NA,NA,28,2,258,"male",NA,NA,"Feminism is important and beneficial to modern society","5","Mon Aug 16 2021 14:43:27 GMT+0200 (Mitteleuropäische Sommerzeit)",1629117807416,"rate_statement",1,FALSE,FALSE,FALSE
2605,NA,NA,28,2,258,"male",NA,NA,"Call the police or do nothing ?","5","Mon Aug 16 2021 14:43:27 GMT+0200 (Mitteleuropäische Sommerzeit)",1629117807416,"experimental_trial",1,FALSE,FALSE,FALSE
2605,NA,3252,28,2,258,"male","very bad","very good","How did you feel about your choice ?","5","Mon Aug 16 2021 14:43:27 GMT+0200 (Mitteleuropäische Sommerzeit)",1629117807416,"fit_backstory_fake_rating",1,FALSE,FALSE,FALSE
2605,NA,NA,28,2,258,"male",NA,NA,"Which of the following is true about the previous study?","correct","Mon Aug 16 2021 14:43:27 GMT+0200 (Mitteleuropäische Sommerzeit)",1629117807416,"understanding_check",1,FALSE,FALSE,FALSE
2605,NA,NA,28,2,258,"male",NA,NA,"Please rate how much you agree or disagree with the following statements:","6","Mon Aug 16 2021 14:43:27 GMT+0200 (Mitteleuropäische Sommerzeit)",1629117807416,"identity_check_Pro",1,FALSE,FALSE,FALSE
2605,NA,NA,28,2,258,"male",NA,NA,"Please rate how much you agree or disagree with the following statements:","2","Mon Aug 16 2021 14:43:27 GMT+0200 (Mitteleuropäische Sommerzeit)",1629117807416,"identity_check_Anti",1,FALSE,FALSE,FALSE
2605,NA,5369,28,2,258,"male",NA,NA,"Which of the following statements is true?","correct","Mon Aug 16 2021 14:43:27 GMT+0200 (Mitteleuropäische Sommerzeit)",1629117807416,"understanding_check2",1,FALSE,FALSE,FALSE
2605,NA,5192,28,2,258,"male","not at all","very strongly","Please rate how much you agree with the following statement: <br />","5","Mon Aug 16 2021 14:43:27 GMT+0200 (Mitteleuropäische Sommerzeit)",1629117807416,"sympathy_rating",1,FALSE,FALSE,FALSE
2603,NA,NA,28,3,258,"non-binary",NA,NA,"Please select the topic you care about the most","Transgender rights","Mon Aug 16 2021 12:10:54 GMT+0200 (Mitteleuropäische Sommerzeit)",1629108654949,"choice_of_political_topic",1,FALSE,FALSE,FALSE
2603,NA,NA,28,3,258,"non-binary",NA,NA,"Transgender people should be allowed to use the bathrooms of the gender they identify as","5","Mon Aug 16 2021 12:10:54 GMT+0200 (Mitteleuropäische Sommerzeit)",1629108654949,"rate_statement",1,FALSE,FALSE,FALSE
2603,NA,NA,28,3,258,"non-binary",NA,NA,"Call the police or do nothing ?","5","Mon Aug 16 2021 12:10:54 GMT+0200 (Mitteleuropäische Sommerzeit)",1629108654949,"experimental_trial",1,FALSE,FALSE,FALSE
2603,NA,2989,28,3,258,"non-binary","very bad","very good","How did you feel about your choice ?","7","Mon Aug 16 2021 12:10:54 GMT+0200 (Mitteleuropäische Sommerzeit)",1629108654949,"fit_backstory_fake_rating",1,FALSE,FALSE,FALSE
2603,NA,NA,28,3,258,"non-binary",NA,NA,"Which of the following is true about the previous study?","correct","Mon Aug 16 2021 12:10:54 GMT+0200 (Mitteleuropäische Sommerzeit)",1629108654949,"understanding_check",1,FALSE,FALSE,FALSE
2603,NA,NA,28,3,258,"non-binary",NA,NA,"Please rate how much you agree or disagree with the following statements:","6","Mon Aug 16 2021 12:10:54 GMT+0200 (Mitteleuropäische Sommerzeit)",1629108654949,"identity_check_Pro",1,FALSE,FALSE,FALSE
2603,NA,NA,28,3,258,"non-binary",NA,NA,"Please rate how much you agree or disagree with the following statements:","2","Mon Aug 16 2021 12:10:54 GMT+0200 (Mitteleuropäische Sommerzeit)",1629108654949,"identity_check_Anti",1,FALSE,FALSE,FALSE
2603,NA,12120,28,3,258,"non-binary",NA,NA,"Which of the following statements is true?","correct","Mon Aug 16 2021 12:10:54 GMT+0200 (Mitteleuropäische Sommerzeit)",1629108654949,"understanding_check2",1,FALSE,FALSE,FALSE
2603,NA,7583,28,3,258,"non-binary","not at all","very strongly","Please rate how much you agree with the following statement: <br />","7","Mon Aug 16 2021 12:10:54 GMT+0200 (Mitteleuropäische Sommerzeit)",1629108654949,"sympathy_rating",1,FALSE,FALSE,FALSE
2602,NA,NA,23,2,258,"male",NA,NA,"Please select the topic you care about the most","Drug legalization","Mon Aug 16 2021 14:08:26 GMT+0200 (Central European Summer Time)",1629115706192,"choice_of_political_topic",1,FALSE,FALSE,FALSE
2602,NA,NA,23,2,258,"male",NA,NA,"Possession of drugs should be legalized","1","Mon Aug 16 2021 14:08:26 GMT+0200 (Central European Summer Time)",1629115706192,"rate_statement",1,FALSE,FALSE,FALSE
2602,NA,NA,23,2,258,"male",NA,NA,"Call the police or do nothing ?","6","Mon Aug 16 2021 14:08:26 GMT+0200 (Central European Summer Time)",1629115706192,"experimental_trial",1,FALSE,FALSE,FALSE
2602,NA,3686,23,2,258,"male","very bad","very good","How did you feel about your choice ?","6","Mon Aug 16 2021 14:08:26 GMT+0200 (Central European Summer Time)",1629115706192,"fit_backstory_fake_rating",1,FALSE,FALSE,FALSE
2602,NA,NA,23,2,258,"male",NA,NA,"Which of the following is true about the previous study?","correct","Mon Aug 16 2021 14:08:26 GMT+0200 (Central European Summer Time)",1629115706192,"understanding_check",1,FALSE,FALSE,FALSE
2602,NA,NA,23,2,258,"male",NA,NA,"Please rate how much you agree or disagree with the following statements:","2","Mon Aug 16 2021 14:08:26 GMT+0200 (Central European Summer Time)",1629115706192,"identity_check_Pro",1,FALSE,FALSE,FALSE
2602,NA,NA,23,2,258,"male",NA,NA,"Please rate how much you agree or disagree with the following statements:","1","Mon Aug 16 2021 14:08:26 GMT+0200 (Central European Summer Time)",1629115706192,"identity_check_Anti",1,FALSE,FALSE,FALSE
2602,NA,12869,23,2,258,"male",NA,NA,"Which of the following statements is true?","correct","Mon Aug 16 2021 14:08:26 GMT+0200 (Central European Summer Time)",1629115706192,"understanding_check2",1,FALSE,FALSE,FALSE
2602,NA,6923,23,2,258,"male","not at all","very strongly","Please rate how much you agree with the following statement: <br />","3","Mon Aug 16 2021 14:08:26 GMT+0200 (Central European Summer Time)",1629115706192,"sympathy_rating",1,FALSE,FALSE,FALSE
2601,NA,NA,21,3,258,"female",NA,NA,"Please select the topic you care about the most","Feminism","Mon Aug 16 2021 14:03:13 GMT+0200 (CEST)",1629115393940,"choice_of_political_topic",1,FALSE,FALSE,FALSE
2601,NA,NA,21,3,258,"female",NA,NA,"Feminism is important and beneficial to modern society","4","Mon Aug 16 2021 14:03:13 GMT+0200 (CEST)",1629115393940,"rate_statement",1,FALSE,FALSE,FALSE
2601,NA,NA,21,3,258,"female",NA,NA,"Call the police or do nothing ?","5","Mon Aug 16 2021 14:03:13 GMT+0200 (CEST)",1629115393940,"experimental_trial",1,FALSE,FALSE,FALSE
2601,NA,5305,21,3,258,"female","very bad","very good","How did you feel about your choice ?","4","Mon Aug 16 2021 14:03:13 GMT+0200 (CEST)",1629115393940,"fit_backstory_fake_rating",1,FALSE,FALSE,FALSE
2601,NA,NA,21,3,258,"female",NA,NA,"Which of the following is true about the previous study?","correct","Mon Aug 16 2021 14:03:13 GMT+0200 (CEST)",1629115393940,"understanding_check",1,FALSE,FALSE,FALSE
2601,NA,NA,21,3,258,"female",NA,NA,"Please rate how much you agree or disagree with the following statements:","6","Mon Aug 16 2021 14:03:13 GMT+0200 (CEST)",1629115393940,"identity_check_Pro",1,FALSE,FALSE,FALSE
2601,NA,NA,21,3,258,"female",NA,NA,"Please rate how much you agree or disagree with the following statements:","3","Mon Aug 16 2021 14:03:13 GMT+0200 (CEST)",1629115393940,"identity_check_Anti",1,FALSE,FALSE,FALSE
2601,NA,12070,21,3,258,"female",NA,NA,"Which of the following statements is true?","correct","Mon Aug 16 2021 14:03:13 GMT+0200 (CEST)",1629115393940,"understanding_check2",1,FALSE,FALSE,FALSE
2601,NA,15851,21,3,258,"female","not at all","very strongly","Please rate how much you agree with the following statement: <br />","5","Mon Aug 16 2021 14:03:13 GMT+0200 (CEST)",1629115393940,"sympathy_rating",1,FALSE,FALSE,FALSE
2589,NA,NA,420,3,258,"non-binary",NA,NA,"Please select the topic you care about the most","AfD","Sun Aug 15 2021 22:31:34 GMT+0200 (Central European Summer Time)",1629059494236,"choice_of_political_topic",1,FALSE,FALSE,FALSE
2589,NA,NA,420,3,258,"non-binary",NA,NA,"AfD winning the next federal election will be good for Germany","-5","Sun Aug 15 2021 22:31:34 GMT+0200 (Central European Summer Time)",1629059494236,"rate_statement",1,FALSE,FALSE,FALSE
2589,NA,NA,420,3,258,"non-binary",NA,NA,"Call the police or do nothing ?","1","Sun Aug 15 2021 22:31:34 GMT+0200 (Central European Summer Time)",1629059494236,"experimental_trial",1,FALSE,FALSE,FALSE
2589,NA,8185,420,3,258,"non-binary","very bad","very good","How did you feel about your choice ?","7","Sun Aug 15 2021 22:31:34 GMT+0200 (Central European Summer Time)",1629059494236,"fit_backstory_fake_rating",1,FALSE,FALSE,FALSE
2589,NA,NA,420,3,258,"non-binary",NA,NA,"Which of the following is true about the previous study?","correct","Sun Aug 15 2021 22:31:34 GMT+0200 (Central European Summer Time)",1629059494236,"understanding_check",1,FALSE,FALSE,FALSE
2589,NA,NA,420,3,258,"non-binary",NA,NA,"Please rate how much you agree or disagree with the following statements:","1","Sun Aug 15 2021 22:31:34 GMT+0200 (Central European Summer Time)",1629059494236,"identity_check_Pro",1,FALSE,FALSE,FALSE
2589,NA,NA,420,3,258,"non-binary",NA,NA,"Please rate how much you agree or disagree with the following statements:","6","Sun Aug 15 2021 22:31:34 GMT+0200 (Central European Summer Time)",1629059494236,"identity_check_Anti",1,FALSE,FALSE,FALSE
2589,NA,13970,420,3,258,"non-binary",NA,NA,"Which of the following statements is true?","incorrect","Sun Aug 15 2021 22:31:34 GMT+0200 (Central European Summer Time)",1629059494236,"understanding_check2",1,FALSE,TRUE,FALSE
2589,NA,10333,420,3,258,"non-binary","not at all","very strongly","Please rate how much you agree with the following statement: <br />","7","Sun Aug 15 2021 22:31:34 GMT+0200 (Central European Summer Time)",1629059494236,"sympathy_rating",1,FALSE,FALSE,FALSE
2585,NA,NA,20,1,258,"female",NA,NA,"Please select the topic you care about the most","AfD","Sun Aug 15 2021 20:33:13 GMT+0200 (Mitteleuropäische Sommerzeit)",1629052393358,"choice_of_political_topic",1,FALSE,FALSE,FALSE
2585,NA,NA,20,1,258,"female",NA,NA,"AfD winning the next federal election will be good for Germany","-5","Sun Aug 15 2021 20:33:13 GMT+0200 (Mitteleuropäische Sommerzeit)",1629052393358,"rate_statement",1,FALSE,FALSE,FALSE
2585,NA,NA,20,1,258,"female",NA,NA,"Call the police or do nothing ?","5","Sun Aug 15 2021 20:33:13 GMT+0200 (Mitteleuropäische Sommerzeit)",1629052393358,"experimental_trial",1,FALSE,FALSE,FALSE
2585,NA,3621,20,1,258,"female","very bad","very good","How did you feel about your choice ?","5","Sun Aug 15 2021 20:33:13 GMT+0200 (Mitteleuropäische Sommerzeit)",1629052393358,"fit_backstory_fake_rating",1,FALSE,FALSE,FALSE
2585,NA,NA,20,1,258,"female",NA,NA,"Which of the following is true about the previous study?","correct","Sun Aug 15 2021 20:33:13 GMT+0200 (Mitteleuropäische Sommerzeit)",1629052393358,"understanding_check",1,FALSE,FALSE,FALSE
2585,NA,NA,20,1,258,"female",NA,NA,"Please rate how much you agree or disagree with the following statements:","1","Sun Aug 15 2021 20:33:13 GMT+0200 (Mitteleuropäische Sommerzeit)",1629052393358,"identity_check_Pro",1,FALSE,FALSE,FALSE
2585,NA,NA,20,1,258,"female",NA,NA,"Please rate how much you agree or disagree with the following statements:","5","Sun Aug 15 2021 20:33:13 GMT+0200 (Mitteleuropäische Sommerzeit)",1629052393358,"identity_check_Anti",1,FALSE,FALSE,FALSE
2585,NA,8612,20,1,258,"female",NA,NA,"Which of the following statements is true?","correct","Sun Aug 15 2021 20:33:13 GMT+0200 (Mitteleuropäische Sommerzeit)",1629052393358,"understanding_check2",1,FALSE,FALSE,FALSE
2585,NA,9912,20,1,258,"female","not at all","very strongly","Please rate how much you agree with the following statement: <br />","6","Sun Aug 15 2021 20:33:13 GMT+0200 (Mitteleuropäische Sommerzeit)",1629052393358,"sympathy_rating",1,FALSE,FALSE,FALSE
2584,NA,NA,21,2,258,"male",NA,NA,"Please select the topic you care about the most","Transgender rights","Sun Aug 15 2021 20:18:40 GMT+0200 (Central European Summer Time)",1629051520634,"choice_of_political_topic",1,FALSE,FALSE,FALSE
2584,NA,NA,21,2,258,"male",NA,NA,"Transgender people should be allowed to use the bathrooms of the gender they identify as","5","Sun Aug 15 2021 20:18:40 GMT+0200 (Central European Summer Time)",1629051520634,"rate_statement",1,FALSE,FALSE,FALSE
2584,NA,NA,21,2,258,"male",NA,NA,"Call the police or do nothing ?","2","Sun Aug 15 2021 20:18:40 GMT+0200 (Central European Summer Time)",1629051520634,"experimental_trial",1,FALSE,FALSE,FALSE
2584,NA,17080,21,2,258,"male","very bad","very good","How did you feel about your choice ?","5","Sun Aug 15 2021 20:18:40 GMT+0200 (Central European Summer Time)",1629051520634,"fit_backstory_fake_rating",1,FALSE,FALSE,FALSE
2584,NA,NA,21,2,258,"male",NA,NA,"Which of the following is true about the previous study?","correct","Sun Aug 15 2021 20:18:40 GMT+0200 (Central European Summer Time)",1629051520634,"understanding_check",1,FALSE,FALSE,FALSE
2584,NA,NA,21,2,258,"male",NA,NA,"Please rate how much you agree or disagree with the following statements:","2","Sun Aug 15 2021 20:18:40 GMT+0200 (Central European Summer Time)",1629051520634,"identity_check_Pro",1,FALSE,FALSE,FALSE
2584,NA,NA,21,2,258,"male",NA,NA,"Please rate how much you agree or disagree with the following statements:","2","Sun Aug 15 2021 20:18:40 GMT+0200 (Central European Summer Time)",1629051520634,"identity_check_Anti",1,FALSE,FALSE,FALSE
2584,NA,19036,21,2,258,"male",NA,NA,"Which of the following statements is true?","correct","Sun Aug 15 2021 20:18:40 GMT+0200 (Central European Summer Time)",1629051520634,"understanding_check2",1,FALSE,FALSE,FALSE
2584,NA,39819,21,2,258,"male","not at all","very strongly","Please rate how much you agree with the following statement: <br />","6","Sun Aug 15 2021 20:18:40 GMT+0200 (Central European Summer Time)",1629051520634,"sympathy_rating",1,FALSE,FALSE,FALSE
2583,NA,NA,58,2,258,"female",NA,NA,"Please select the topic you care about the most","Feminism","Sun Aug 15 2021 20:17:33 GMT+0200 (Mitteleuropäische Sommerzeit)",1629051453343,"choice_of_political_topic",1,FALSE,FALSE,FALSE
